x,y,z,vx,vy,vz,ax,ay,az,v_mag,a_mag
0,0,0,0,0,0,0,0,0,0,0
0,0,0,0,0,0,0,0,0,0,0
0,0,0,0,0,0,0,0,0,0,0
1.065814E-14,-0.003924534,8.940697E-08,0,-0.1962,0,0,0,0,0.1962,0
-0.001158494,-0.008322835,4.860386E-05,0,-0.2207484,0,-0.01604856,-0.0226366,-0.375442,0.2207484,0.376466
-0.00343765,-0.01316978,0.00014247,0.001288905,-0.2453016,-5.480177E-05,-0.03193696,-0.04504703,-0.7471293,0.245305,0.7491671
-0.006772823,-0.01841536,0.0002759136,0.005142515,-0.2698932,-0.0002169149,-0.04766624,-0.06723306,-1.1151,0.2699423,1.118141
-0.01107099,-0.02398716,0.0004405938,0.01282238,-0.2946138,-0.0005348168,-0.06323826,-0.08919733,-1.479391,0.2948932,1.483426
-0.01620844,-0.02979314,0.0006256588,0.02557258,-0.3196371,-0.0010512,-0.07865468,-0.110942,-1.840039,0.3206602,1.845058
-0.02008672,-0.03440196,0.0009528063,0.05330054,-0.2674186,-0.002143308,-0.08187632,0.3156013,-1.724843,0.2726871,1.755389
-0.0225355,-0.03789368,0.00144159,0.08957113,-0.2163064,-0.003843343,-0.06977898,0.7379118,-1.611519,0.23415,1.773803
-0.0233951,-0.04034724,0.002087522,0.1337606,-0.166494,-0.006481438,-0.0426841,1.155525,-1.5002,0.2136683,1.894112
-0.0225163,-0.04183969,0.002861362,0.1852345,-0.1181197,-0.01043451,-0.0009341688,1.568027,-1.391138,0.2199385,2.096181
-0.01976098,-0.04244542,0.003708642,0.2433419,-0.07127014,-0.01611065,0.0551056,1.975052,-1.284702,0.2540753,2.356762
-0.01393512,-0.04226054,0.003523581,0.3141046,-0.0007442087,-0.02475074,0.3952924,2.099097,-0.7710772,0.3150791,2.270909
-0.005079813,-0.04134063,0.002155643,0.3885906,0.06873359,-0.03433536,0.7549631,2.212565,-0.2762758,0.3961134,2.35409
0.006714687,-0.03965458,-0.0005289353,0.4641351,0.1379364,-0.04322991,1.132989,2.315581,0.1989575,0.4861242,2.585569
0.02130998,-0.03708587,-0.00463907,0.5382696,0.2076097,-0.04957053,1.528279,2.408612,0.6538261,0.5790451,2.926523
0.03851761,-0.03343613,-0.01024738,0.6087261,0.2783511,-0.05124956,1.939763,2.49245,1.087493,0.6713072,3.340304
0.05518483,-0.0293349,-0.01582755,0.6555204,0.2761557,-0.04739069,1.854168,2.418606,0.6812461,0.7128919,3.12277
0.07127687,-0.02486257,-0.02111695,0.6999756,0.2743462,-0.03853566,1.750922,2.3591,0.28115,0.7528058,2.951293
0.08681241,-0.02008381,-0.02587238,0.743867,0.2723923,-0.02495872,1.63039,2.313377,-0.1115213,0.7925646,2.83237
0.1018592,-0.01504631,-0.02987161,0.7889183,0.2698268,-0.007114246,1.493094,2.281001,-0.495594,0.8338161,2.770904
0.1165305,-0.009780526,-0.03291474,0.8367817,0.2662132,0.01437842,1.339698,2.261652,-0.8699924,0.8782254,2.76889
0.1345698,-0.004250839,-0.0349273,0.8961648,0.2872454,0.04208042,1.208298,2.335015,-0.1269276,0.9420149,2.632184
0.1560248,0.00149402,-0.03608496,0.957449,0.3074255,0.07220472,1.112895,2.390068,0.6155167,1.008183,2.707364
0.1808756,0.007533982,-0.03657759,1.017555,0.3276609,0.104245,1.053138,2.427203,1.355242,1.074079,2.972725
0.2090271,0.01407367,-0.03659643,1.073379,0.3487744,0.1380399,1.028831,2.447379,2.090198,1.137031,3.378917
0.2402944,0.02143295,-0.03632062,1.121786,0.3713518,0.1737712,1.039893,2.452097,2.818376,1.194363,3.877809
0.2705967,0.02776356,-0.0351366,1.14278,0.2974644,0.1949585,0.768895,2.223818,2.421181,1.196845,3.376193
0.2999124,0.03285854,-0.03288134,1.158801,0.2241393,0.2172083,0.4944219,1.990657,2.036501,1.200099,2.890416
0.3282484,0.03655314,-0.02942848,1.170708,0.1511599,0.240119,0.2172554,1.752372,1.664277,1.204601,2.426484
0.3556279,0.03872725,-0.0246848,1.179315,0.07842197,0.2632062,-0.06192495,1.508837,1.304436,1.210872,1.99549
0.3820814,0.03930354,-0.01858701,1.185389,0.005903959,0.2859189,-0.342542,1.260036,0.9569024,1.219398,1.618854
0.4085339,0.03981526,-0.01236797,1.191938,2.624094E-05,0.3192956,-0.1424252,1.023404,0.90375,1.233963,1.372736
0.4349111,0.0402558,-0.006016145,1.195722,-0.005663931,0.352024,0.05878196,0.7925936,0.8477046,1.246476,1.162008
0.4611476,0.04062162,0.0004950464,1.196795,-0.01135153,0.384938,0.260915,0.56756,0.7887725,1.257229,1.006163
0.487187,0.04091117,0.007206524,1.195244,-0.01721725,0.4188485,0.463832,0.3482698,0.7269883,1.266625,0.9300236
0.512981,0.04112539,0.01417296,1.19117,-0.02344672,0.4545425,0.6674126,0.1346961,0.6624159,1.275165,0.9499355
0.5376819,0.04031956,0.02304821,1.185619,-0.05757348,0.4872643,0.3029699,-0.05448876,0.3225514,1.283135,0.4458691
0.5612852,0.03845185,0.03383405,1.178988,-0.09194075,0.5209607,-0.05625184,-0.2420608,-0.0154427,1.292233,0.2489903
0.5837849,0.03553252,0.04650564,1.172243,-0.1262682,0.5544428,-0.4103149,-0.4280249,-0.3515657,1.302883,0.68932
0.6051738,0.0316225,0.06101139,1.166357,-0.1602821,0.586541,-0.7592782,-0.6124074,-0.685809,1.315336,1.192426
0.6254469,0.02683082,0.07727107,1.162322,-0.1937597,0.6161114,-1.103195,-0.7952535,-1.018158,1.32971,1.698857
0.6473244,0.02296124,0.09391291,1.160791,-0.1735345,0.6504601,-1.043547,-0.645443,-0.4553328,1.341882,1.308784
0.6708517,0.01996192,0.1108774,1.160819,-0.1526328,0.6802748,-0.9902712,-0.4860383,0.09937777,1.354095,1.107586
0.696012,0.01783592,0.1280962,1.160147,-0.1311839,0.705781,-0.9431778,-0.317279,0.6457924,1.364286,1.186296
0.7227267,0.0166392,0.145488,1.156512,-0.1093205,0.7271639,-0.9022062,-0.1394648,1.183768,1.370488,1.494902
0.7508537,0.01647529,0.162956,1.147657,-0.08725485,0.7445924,-0.8674176,0.04704564,1.713198,1.37082,1.920852
0.7774329,0.01605624,0.1803007,1.133172,-0.08983192,0.7567144,-0.712878,-0.08799464,1.317768,1.365564,1.500816
0.8023971,0.01526809,0.1974894,1.113568,-0.09270529,0.7660478,-0.5556538,-0.2231627,0.9284815,1.354791,1.104821
0.8257062,0.01403035,0.2144894,1.09034,-0.09588508,0.7731387,-0.3957887,-0.3583204,0.5452871,1.340067,0.7631384
0.8473436,0.0122958,0.2312661,1.064964,-0.09928052,0.7785284,-0.2333457,-0.4933718,0.168138,1.322918,0.5710834
0.8673152,0.01005036,0.2477831,1.038892,-0.10274,0.7827646,-0.06840212,-0.6282623,-0.2030066,1.304827,0.6637802
0.8861985,0.008246422,0.2643938,1.009156,-0.07262006,0.7870474,-0.08374382,-0.6048365,-0.369635,1.28184,0.7137719
0.9040276,0.006901622,0.281073,0.981046,-0.04227977,0.7906011,-0.09676429,-0.5818173,-0.5348076,1.26067,0.7961745
0.9208507,0.006040215,0.2977957,0.9553239,-0.01164542,0.7934029,-0.1075081,-0.5592184,-0.6985098,1.241881,0.9012209
0.93673,0.005691469,0.3145377,0.9327462,0.01933154,0.7954465,-0.1160197,-0.5370604,-0.8607297,1.22602,1.021151
0.9517422,0.00588955,0.3312753,0.9140645,0.05066751,0.7967408,-0.1223449,-0.5153699,-1.021457,1.213621,1.15063
0.9670938,0.007216036,0.3476898,0.8990895,0.09752704,0.7973472,-0.05502185,-0.382946,-0.8207465,1.205668,0.9073587
0.9828714,0.009640589,0.3637924,0.8881029,0.1446001,0.7975867,0.01224977,-0.2527266,-0.6216743,1.202406,0.6711928
0.9991377,0.01314028,0.3795977,0.8801407,0.1917909,0.7978379,0.07944943,-0.1246895,-0.4242239,1.203319,0.4492501
1.015932,0.01770002,0.3951224,0.8742426,0.2390399,0.7984585,0.14656,0.001189289,-0.2283797,1.207881,0.2713642
1.03327,0.02331293,0.4103858,0.8694566,0.2863103,0.7997929,0.213572,0.1249359,-0.03413267,1.215564,0.2497739
1.050161,0.02912831,0.4257548,0.8654791,0.2999412,0.8018494,0.205098,0.06780972,-0.147213,1.217366,0.2614097
1.06662,0.03514963,0.4412458,0.8621227,0.3135726,0.8047716,0.1963904,0.01173952,-0.2593808,1.220344,0.325554
1.082673,0.04138221,0.4568737,0.8598556,0.3272056,0.8085186,0.1874574,-0.04328771,-0.3706427,1.224793,0.4176005
1.098352,0.04783423,0.4726512,0.8591404,0.3408341,0.813051,0.1783072,-0.09728466,-0.481003,1.230992,0.5221319
1.113701,0.05451539,0.4885893,0.8604341,0.3544423,0.8183323,0.1689495,-0.1502632,-0.5904672,1.239211,0.6322772
1.129639,0.06166273,0.5047684,0.8642482,0.3713459,0.8244256,0.116764,-0.08743887,-0.4292872,1.2508,0.4533948
1.1462,0.06926009,0.5212017,0.8698806,0.3881941,0.8310248,0.06535551,-0.02517299,-0.2696641,1.264116,0.2786104
1.163403,0.07729685,0.5378956,0.8766586,0.405,0.8379055,0.01471412,0.03653748,-0.1115804,1.278531,0.1183287
1.181254,0.08576825,0.5548498,0.8839169,0.4217882,0.8448438,-0.03517042,0.09769657,0.04497629,1.293435,0.1131567
1.199743,0.09467506,0.5720575,0.890997,0.4385877,0.8516183,-0.08430698,0.1583085,0.2000211,1.308239,0.2686591
1.218296,0.1035874,0.5893127,0.8967809,0.4395763,0.8575368,-0.05715835,0.1310922,0.1859881,1.316363,0.2346141
1.236897,0.112505,0.6066121,0.9018465,0.4405917,0.8632156,-0.03021604,0.1042323,0.172055,1.323854,0.2034215
1.255535,0.1214278,0.6239543,0.9062451,0.4416268,0.8687654,-0.003480722,0.07772436,0.1582219,1.330815,0.1763161
1.274196,0.1303559,0.6413401,0.9100281,0.4426752,0.8742951,0.02304861,0.05156451,0.1444867,1.33735,0.1551339
1.29287,0.1392893,0.6587723,0.9132469,0.4437312,0.8799121,0.04937306,0.02574847,0.1308503,1.343563,0.1422057
1.311452,0.1482117,0.6764159,0.9159415,0.4439935,0.885699,0.02285367,0.0008113074,0.08581942,1.349275,0.08881397
1.329935,0.1571224,0.6942718,0.918299,0.4442575,0.8915756,-0.003358928,-0.02390111,0.04122851,1.354823,0.04777379
1.348319,0.1660213,0.7123388,0.9204917,0.4445238,0.8974401,-0.02926828,-0.04839076,-0.0029287,1.360259,0.05662928
1.366605,0.174909,0.7306134,0.9226903,0.4447933,0.9031917,-0.05487799,-0.07265965,-0.04665451,1.365633,0.1023116
1.384796,0.1837864,0.74909,0.925064,0.4450669,0.908731,-0.08019138,-0.09670968,-0.08995293,1.370992,0.1545152
1.403232,0.1928347,0.7676314,0.9278731,0.4520265,0.9141379,-0.0703899,-0.07458819,-0.03082486,1.37874,0.1070902
1.421914,0.202053,0.7862331,0.9307997,0.4589918,0.9192631,-0.06076051,-0.05261138,0.02769484,1.3864,0.0850106
1.440836,0.2114415,0.8048908,0.9336084,0.4659647,0.9241444,-0.0513007,-0.03077873,0.0856135,1.39384,0.104445
1.459991,0.2210007,0.8236009,0.9360663,0.472947,0.9288189,-0.04200728,-0.009089585,0.1429359,1.40093,0.1492579
1.479364,0.2307321,0.8423603,0.9379426,0.4799394,0.933323,-0.03287903,0.01245642,0.1996693,1.40754,0.2027413
1.498553,0.2404418,0.8611944,0.9389765,0.4808592,0.9375624,-0.02335907,-0.01894863,0.1365809,1.411356,0.1398536
1.517549,0.2501285,0.8801016,0.9394705,0.481783,0.94171,-0.01382564,-0.05004265,0.07414196,1.414757,0.09051213
1.536349,0.259792,0.8990809,0.9396679,0.4827085,0.9458034,-0.00427951,-0.08082897,0.01234435,1.417931,0.08187808
1.554954,0.2694324,0.9181312,0.9398102,0.4836344,0.9498802,0.005277216,-0.1113103,-0.04881679,1.421062,0.121659
1.573368,0.279051,0.9372522,0.9401357,0.4845595,0.9539784,0.01484365,-0.1414897,-0.1093473,1.424334,0.1794339
1.59189,0.2888194,0.9564888,0.9409013,0.4909173,0.9582512,0.001905062,-0.1277128,-0.0810423,1.429874,0.1512681
1.610523,0.2987373,0.9758415,0.9419842,0.4972733,0.9625341,-0.01095349,-0.1140538,-0.05305273,1.435649,0.126265
1.629272,0.308804,0.9953094,0.9432724,0.5036291,0.9667754,-0.02373257,-0.1005118,-0.02537611,1.441548,0.1063476
1.648137,0.3190192,1.014891,0.9446549,0.5099862,0.9709231,-0.03643157,-0.08708584,0.001993373,1.447464,0.09442021
1.667117,0.3293829,1.034583,0.9460222,0.5163462,0.9749257,-0.04905171,-0.07377495,0.02905669,1.45329,0.09323683
1.686124,0.3398209,1.054314,0.947251,0.5202608,0.9786854,-0.03661256,-0.07621607,0.03033481,1.458006,0.08983079
1.705156,0.3503332,1.074081,0.9483528,0.5241787,0.9823005,-0.02429722,-0.07862436,0.03162007,1.462549,0.08815879
1.72421,0.3609199,1.093883,0.9493224,0.528099,0.9858198,-0.01210635,-0.08100018,0.03291186,1.46695,0.08826541
1.743283,0.3715808,1.113719,0.9501546,0.5320207,0.9892922,-3.659732E-05,-0.08334409,0.03421171,1.471237,0.09009262
1.762374,0.3823164,1.13359,0.9508441,0.535943,0.9927657,0.01191069,-0.08565626,0.0355191,1.47544,0.09349045
1.781412,0.3930939,1.153555,0.9513818,0.5385026,0.996264,0.005671603,-0.09480381,0.01632199,1.479072,0.09636565
1.800399,0.4039137,1.173615,0.9518479,0.5410619,0.9997857,-0.0004654428,-0.1038599,-0.002696254,1.482678,0.1038959
1.819333,0.4147758,1.193769,0.9523174,0.5436212,1.003307,-0.006503399,-0.1128253,-0.02153575,1.48629,0.1150462
1.838217,0.4256805,1.214016,0.9528646,0.5461808,1.006803,-0.01244276,-0.1217008,-0.04019967,1.489938,0.1287708
1.857056,0.4366281,1.234354,0.9535632,0.5487408,1.010251,-0.01828521,-0.1304873,-0.05869057,1.493655,0.1442424
1.875991,0.4476798,1.254756,0.954495,0.5532017,1.013661,-0.01907054,-0.1201531,-0.03422206,1.498199,0.1263788
1.895025,0.4588355,1.275222,0.955556,0.5576633,1.016997,-0.01989891,-0.1099123,-0.01000305,1.502784,0.112146
1.914159,0.470095,1.295749,0.95665,0.5621259,1.020255,-0.02076913,-0.09976414,0.01396787,1.507344,0.1028559
1.933389,0.4814582,1.316336,0.9576814,0.5665902,1.023432,-0.02168152,-0.08970784,0.03769098,1.511817,0.09969049
1.952713,0.4929253,1.336983,0.958556,0.5710565,1.026524,-0.0226331,-0.07974269,0.06117246,1.516142,0.1030205
1.971992,0.5044147,1.35768,0.9591717,0.5727928,1.029485,-0.01795019,-0.08906778,0.04387433,1.519191,0.1008971
1.991223,0.515927,1.378427,0.9596085,0.5745306,1.032377,-0.01327472,-0.09830158,0.02676174,1.522083,0.1027405
2.010405,0.527462,1.399221,0.9599337,0.5762694,1.035216,-0.008608687,-0.1074452,0.009830458,1.524871,0.1082369
2.029538,0.5390198,1.420063,0.960214,0.5780087,1.038022,-0.003950144,-0.1164994,-0.006918659,1.527611,0.1167715
2.048621,0.5506005,1.440951,0.9605151,0.5797482,1.040813,0.0006992906,-0.1254648,-0.02349078,1.530356,0.1276469
2.067732,0.5622469,1.46191,0.9609047,0.5827389,1.043625,-0.004555257,-0.1222098,-0.01769238,1.533648,0.1235678
2.086871,0.5739588,1.482938,0.9613578,0.5857297,1.04642,-0.009772021,-0.1189849,-0.01196054,1.536972,0.1199832
2.106037,0.5857361,1.504035,0.9618521,0.5887209,1.049177,-0.01494813,-0.11579,-0.006301052,1.5403,0.1169208
2.125232,0.5975788,1.5252,0.9623651,0.5917128,1.051876,-0.02008587,-0.1126246,-0.0007088712,1.543604,0.1144039
2.144456,0.6094871,1.54643,0.9628749,0.5947058,1.054496,-0.0251846,-0.1094887,0.004814476,1.546857,0.1124509
2.163699,0.6214455,1.567699,0.9633588,0.5972063,1.057011,-0.02148144,-0.1084477,0.008168235,1.549835,0.1108561
2.182961,0.6334546,1.589005,0.9638048,0.5997079,1.059441,-0.01782271,-0.1074152,0.01149792,1.552735,0.1094891
2.202242,0.6455138,1.610346,0.9642,0.6022105,1.061802,-0.01420791,-0.1063909,0.01480058,1.555558,0.108351
2.22154,0.6576235,1.631722,0.9645314,0.6047138,1.064106,-0.0106374,-0.1053748,0.01807716,1.558307,0.107442
2.240853,0.6697835,1.653132,0.9647861,0.6072177,1.066369,-0.007109248,-0.104367,0.02132552,1.560983,0.1067604
2.260141,0.6819745,1.67459,0.9649508,0.6090024,1.068596,-0.007627513,-0.1077923,0.01288537,1.563301,0.1088274
2.279405,0.6941967,1.696096,0.9650597,0.6107873,1.070793,-0.008121978,-0.1111848,0.004526009,1.565567,0.1115729
2.298643,0.7064499,1.717648,0.9651458,0.6125727,1.072958,-0.008593043,-0.1145448,-0.003748223,1.567798,0.1149278
2.317857,0.7187344,1.739245,0.9652418,0.6143584,1.07509,-0.009040779,-0.1178724,-0.01194212,1.570015,0.1188203
2.337047,0.73105,1.760888,0.9653802,0.6161444,1.077186,-0.009464596,-0.1211683,-0.02005476,1.572235,0.1231809
2.356266,0.7434214,1.782573,0.9655937,0.6186749,1.079252,-0.01057538,-0.1168266,-0.01228908,1.574775,0.1179462
2.375516,0.7558484,1.804298,0.9658513,0.6212057,1.081277,-0.01169174,-0.1125262,-0.004606609,1.577316,0.1132257
2.394796,0.7683309,1.826064,0.9661227,0.6237369,1.083256,-0.0128141,-0.1082671,0.002993442,1.579837,0.1090639
2.414106,0.7808689,1.84787,0.966378,0.6262687,1.085185,-0.01394059,-0.1040486,0.01051701,1.582317,0.1055039
2.433445,0.7934625,1.869714,0.9665875,0.628801,1.087059,-0.01507305,-0.0998706,0.01796078,1.584733,0.1025862
2.452771,0.806085,1.891589,0.9667213,0.6304395,1.088865,-0.01265594,-0.1016583,0.01340128,1.586705,0.1033159
2.472085,0.8187366,1.913491,0.9667985,0.6320785,1.090621,-0.01025403,-0.1034286,0.008888716,1.588609,0.104315
2.491384,0.8314173,1.935422,0.9668369,0.6337179,1.092337,-0.00786598,-0.1051816,0.004429774,1.590463,0.1055683
2.510669,0.8441271,1.95738,0.9668543,0.6353575,1.094022,-0.00549316,-0.1069177,1.852593E-05,1.592285,0.1070587
2.529941,0.8568661,1.979366,0.9668679,0.6369973,1.095685,-0.003134686,-0.1086369,-0.004343131,1.594091,0.1087688
2.549215,0.8696433,2.001388,0.9668952,0.6388572,1.097338,-0.004671038,-0.1073217,-0.003897533,1.595987,0.107494
2.568491,0.8824587,2.023446,0.9669344,0.6407172,1.098972,-0.006193375,-0.1060194,-0.003458781,1.59788,0.1062564
2.58777,0.8953124,2.04554,0.9669839,0.6425774,1.100582,-0.007699751,-0.1047301,-0.003028869,1.599764,0.1050564
2.607052,0.9082042,2.06767,0.967042,0.6444378,1.102161,-0.00919201,-0.1034534,-0.002605524,1.601633,0.1038936
2.626337,0.9211344,2.089834,0.9671072,0.6462986,1.103704,-0.01067255,-0.1021894,-0.002189497,1.603484,0.1027685
2.64563,0.9341004,2.112024,0.967178,0.6480662,1.105204,-0.009719615,-0.1004458,2.869524E-05,1.605272,0.1009149
2.664933,0.9471027,2.13424,0.9672456,0.649834,1.106666,-0.008783541,-0.09871916,0.002224472,1.607034,0.0991341
2.684244,0.9601411,2.15648,0.9673016,0.6516021,1.108093,-0.007859495,-0.0970092,0.00439861,1.608766,0.09742641
2.703563,0.9732157,2.178744,0.9673374,0.6533705,1.109489,-0.006950104,-0.09531594,0.006553508,1.610466,0.09579343
2.722889,0.9863263,2.201033,0.9673447,0.6551391,1.110858,-0.006052343,-0.09363927,0.008690411,1.612132,0.09423623
2.742205,0.9994626,2.223346,0.9673151,0.6565148,1.1122,-0.00562412,-0.09419873,0.005612073,1.613598,0.09453321
2.76151,1.012625,2.245686,0.9672608,0.6578906,1.11352,-0.005193093,-0.09475283,0.002566414,1.615035,0.09492972
2.780804,1.025812,2.268049,0.9671938,0.6592666,1.114819,-0.004762535,-0.09530156,-0.0004467889,1.616452,0.09542153
2.800088,1.039025,2.290438,0.9671262,0.6606427,1.116099,-0.00432878,-0.09584519,-0.003429183,1.617856,0.09600416
2.81936,1.052264,2.31285,0.9670697,0.6620189,1.117362,-0.003893677,-0.09638365,-0.006380748,1.619256,0.09667306
2.838641,1.065536,2.335289,0.9670359,0.6635977,1.11861,-0.004540123,-0.09425029,-0.004041107,1.620744,0.09444607
2.857929,1.078841,2.357752,0.9670157,0.6651766,1.119841,-0.005184337,-0.092138,-0.001725329,1.622228,0.09229986
2.877224,1.09218,2.380241,0.9670002,0.6667557,1.121051,-0.005826511,-0.09004661,0.000567101,1.623702,0.09023669
2.896527,1.105551,2.402754,0.9669802,0.668335,1.122238,-0.006467363,-0.08797594,0.00283611,1.625159,0.08825891
2.915837,1.118956,2.425291,0.966947,0.6699144,1.1234,-0.007107961,-0.08592565,0.005081303,1.626591,0.08636874
2.935143,1.132385,2.447847,0.9668918,0.6711828,1.124531,-0.006178557,-0.08559767,0.004168902,1.627863,0.08592157
2.954446,1.145839,2.470423,0.9668182,0.6724513,1.125638,-0.005255717,-0.08527291,0.003264003,1.629107,0.08549704
2.973743,1.159317,2.493017,0.9667299,0.6737199,1.126724,-0.004342931,-0.0849515,0.002373817,1.630329,0.08509555
2.993037,1.172819,2.51563,0.9666303,0.6749886,1.127793,-0.003437837,-0.08463312,0.001494138,1.631533,0.08471609
3.012325,1.186346,2.538261,0.9665231,0.6762574,1.128848,-0.002539053,-0.08431807,0.0006236735,1.632724,0.0843586
3.03161,1.199897,2.560913,0.9664116,0.6774997,1.129893,-0.002925612,-0.08350918,0.0002521618,1.633896,0.08356079
3.050892,1.213474,2.583587,0.9662974,0.678742,1.130926,-0.003304854,-0.08270819,-0.0001155026,1.635058,0.08277427
3.070171,1.227075,2.606281,0.9661819,0.6799844,1.131945,-0.003682833,-0.08191541,-0.0004787824,1.636211,0.08199956
3.089447,1.240701,2.628997,0.9660667,0.6812268,1.13295,-0.004056156,-0.08113059,-0.0008411803,1.637355,0.08123627
3.108721,1.254352,2.651733,0.9659532,0.6824694,1.133939,-0.004423204,-0.08035354,-0.001200758,1.638489,0.08048414
3.127995,1.268029,2.674487,0.9658429,0.6836985,1.13491,-0.004307092,-0.07903583,-0.0001645688,1.639609,0.07915327
3.147271,1.28173,2.697259,0.9657317,0.6849277,1.135864,-0.004193034,-0.07773121,0.0008632742,1.640716,0.07784901
3.166549,1.295456,2.720048,0.9656156,0.686157,1.136801,-0.00408252,-0.07643965,0.001879044,1.64181,0.07657165
3.185827,1.309208,2.742856,0.9654906,0.6873863,1.137722,-0.003973919,-0.07516093,0.002886675,1.642888,0.07532124
3.205107,1.322984,2.76568,0.965353,0.6886157,1.138626,-0.003867951,-0.0738948,0.003883251,1.643949,0.07409779
3.22438,1.336781,2.78852,0.9651988,0.6896697,1.139515,-0.003568752,-0.07360107,0.002829343,1.644916,0.07374185
3.243647,1.350598,2.811378,0.965032,0.6907238,1.140389,-0.00327397,-0.0733104,0.001786699,1.645866,0.07340521
3.262907,1.364436,2.834251,0.964857,0.6917779,1.14125,-0.002979913,-0.07302278,0.0007577431,1.646803,0.07308749
3.282161,1.378294,2.85714,0.9646778,0.6928321,1.1421,-0.002685222,-0.07273796,-0.0002636115,1.647729,0.07278799
3.301408,1.392172,2.880045,0.9644984,0.6938863,1.142938,-0.002391992,-0.07245602,-0.001274324,1.648649,0.0725067
3.320654,1.406073,2.902966,0.9643227,0.6949936,1.143767,-0.002707292,-0.07132892,-0.0006794871,1.649587,0.07138351
3.339899,1.419997,2.925905,0.9641486,0.696101,1.144585,-0.003018474,-0.07021306,-9.121087E-05,1.650519,0.07027797
3.359143,1.433943,2.94886,0.9639736,0.6972083,1.14539,-0.003329179,-0.0691082,0.0004909666,1.651443,0.06919008
3.378385,1.447912,2.971831,0.9637957,0.6983158,1.146183,-0.003638768,-0.0680145,0.001068752,1.652356,0.06812014
3.397626,1.461903,2.994817,0.9636124,0.6994233,1.14696,-0.003943061,-0.06693162,0.001639041,1.653257,0.0670677
3.416863,1.475915,3.017818,0.9634217,0.7004442,1.147722,-0.003666268,-0.06628081,0.001540211,1.654107,0.0664
3.436096,1.489947,3.040833,0.9632239,0.7014652,1.148469,-0.003394269,-0.06563658,0.001443766,1.654943,0.06574015
3.455325,1.503999,3.063861,0.9630195,0.7024863,1.149202,-0.003125109,-0.06499872,0.00135067,1.655765,0.06508783
3.47455,1.518071,3.086902,0.9628088,0.7035074,1.149923,-0.002857259,-0.06436728,0.001256596,1.656577,0.06444292
3.49377,1.532164,3.109956,0.9625922,0.7045286,1.150632,-0.002594073,-0.06374204,0.001165025,1.657377,0.06380544
3.512986,1.546276,3.133024,0.9623702,0.7055253,1.15133,-0.002673622,-0.06315764,0.0008446415,1.658157,0.06321985
3.532196,1.560409,3.156106,0.962144,0.7065222,1.152018,-0.002751986,-0.06257908,0.0005272992,1.658927,0.06264178
3.5514,1.574561,3.179201,0.9619148,0.7075191,1.152694,-0.00282828,-0.06200631,0.0002148759,1.659689,0.06207115
3.5706,1.588732,3.20231,0.9616839,0.7085159,1.153359,-0.00290334,-0.06143927,-9.752826E-05,1.660442,0.06150791
3.589794,1.602924,3.225431,0.9614527,0.7095129,1.154013,-0.002978262,-0.0608779,-0.0004068379,1.661188,0.06095207
3.608985,1.617137,3.248565,0.9612222,0.7105366,1.154654,-0.00303492,-0.06001685,-1.677069E-05,1.661937,0.06009354
3.628174,1.63137,3.271711,0.960991,0.7115604,1.155283,-0.00309359,-0.05916448,0.00036941,1.662679,0.05924645
3.647359,1.645623,3.294869,0.9607576,0.7125841,1.1559,-0.003149455,-0.05832033,0.0007542167,1.663411,0.05841018
3.666541,1.659898,3.318039,0.9605205,0.713608,1.156504,-0.003203966,-0.05748467,0.001135074,1.664132,0.05758508
3.685719,1.674193,3.34122,0.9602783,0.7146318,1.157095,-0.003260401,-0.05665747,0.001511195,1.664843,0.05677132
3.704892,1.688508,3.364413,0.9600295,0.7156169,1.157673,-0.003132932,-0.05620551,0.001176599,1.665524,0.05630506
3.72406,1.702842,3.387615,0.9597754,0.7166021,1.158238,-0.00300631,-0.05575808,0.0008455382,1.666194,0.05584547
3.743221,1.717196,3.410829,0.9595174,0.7175874,1.158791,-0.002879729,-0.05531519,0.000518768,1.666854,0.05539253
3.762376,1.731569,3.434052,0.9592566,0.7185726,1.159332,-0.002752836,-0.0548767,0.0001943309,1.667504,0.05494605
3.781525,1.745961,3.457286,0.9589946,0.7195579,1.159862,-0.002627046,-0.05444248,-0.0001258033,1.668147,0.05450597
3.800669,1.760375,3.48053,0.9587324,0.7205894,1.160382,-0.002755865,-0.05377883,-1.947456E-05,1.668803,0.0538494
3.819809,1.774809,3.503784,0.9584697,0.721621,1.160891,-0.002882523,-0.0531217,8.263512E-05,1.669451,0.05319991
3.838944,1.789264,3.527048,0.9582062,0.7226526,1.161388,-0.003007976,-0.05247122,0.0001844814,1.670092,0.05255769
3.858075,1.803739,3.550322,0.9579414,0.7236842,1.161872,-0.003135287,-0.05182724,0.0002853894,1.670724,0.05192278
3.877201,1.818236,3.573605,0.957675,0.7247158,1.162344,-0.003259683,-0.05118963,0.0003880689,1.671346,0.05129478
3.896322,1.832753,3.596897,0.9574066,0.7257704,1.162803,-0.003206431,-0.05063654,0.0004354207,1.671969,0.05073982
3.915437,1.847292,3.620197,0.957136,0.7268249,1.163249,-0.003155942,-0.05008905,0.0004834236,1.672583,0.0501907
3.934548,1.861851,3.643506,0.9568631,0.7278795,1.163683,-0.003102637,-0.04954695,0.0005269233,1.673187,0.0496468
3.953654,1.876432,3.666822,0.9565877,0.7289342,1.164104,-0.003053155,-0.04901028,0.0005732984,1.673781,0.04910864
3.972754,1.891034,3.690146,0.9563096,0.7299888,1.164512,-0.003001172,-0.04847898,0.0006189041,1.674366,0.04857573
3.991849,1.905657,3.713479,0.9560285,0.7310817,1.164909,-0.003018734,-0.04804687,0.0004782793,1.674958,0.04814399
4.010938,1.920303,3.736818,0.9557452,0.7321747,1.165293,-0.003035761,-0.04761928,0.0003339435,1.675541,0.04771711
4.030021,1.93497,3.760165,0.9554603,0.7332677,1.165665,-0.00305137,-0.04719588,0.0001920613,1.676115,0.04729481
4.049098,1.949659,3.783519,0.9551742,0.7343607,1.166025,-0.003065455,-0.04677676,4.933796E-05,1.676681,0.04687712
4.068169,1.96437,3.806879,0.9548876,0.7354537,1.166372,-0.003081782,-0.04636179,-8.576701E-05,1.677238,0.04646418
4.087235,1.979104,3.830246,0.9546009,0.7366267,1.166708,-0.003149299,-0.04584005,7.465699E-05,1.677822,0.04594817
4.106297,1.993862,3.85362,0.9543136,0.7377998,1.16703,-0.003219877,-0.04532361,0.0002266813,1.678399,0.0454384
4.125352,2.008644,3.876999,0.9540252,0.7389729,1.167339,-0.003289435,-0.04481225,0.0003848624,1.678966,0.04493447
4.144404,2.023449,3.900385,0.953735,0.740146,1.167636,-0.003356136,-0.04430586,0.0005362218,1.679524,0.04443602
4.163449,2.038277,3.923776,0.9534424,0.7413192,1.167918,-0.00342365,-0.04380456,0.0006929633,1.680071,0.04394362
4.182489,2.053131,3.947172,0.9531467,0.7425628,1.168187,-0.003410897,-0.04346547,0.0006387005,1.68064,0.04360377
4.201523,2.068009,3.970573,0.9528483,0.7438064,1.168443,-0.003398524,-0.04312991,0.000588941,1.681198,0.04326761
4.220551,2.082912,3.993979,0.9525473,0.74505,1.168684,-0.003386299,-0.04279771,0.0005405637,1.681746,0.04293487
4.239573,2.097841,4.017389,0.9522439,0.7462937,1.168913,-0.00337203,-0.04246875,0.0004923573,1.682284,0.04260525
4.258589,2.112793,4.040802,0.9519385,0.7475374,1.169127,-0.003363265,-0.04214312,0.0004460782,1.682812,0.04227947
4.277599,2.127774,4.064221,0.9516309,0.7488985,1.169328,-0.003452662,-0.0418158,0.0005150158,1.683383,0.04196126
4.296603,2.142781,4.087643,0.9513211,0.7502596,1.169515,-0.003544006,-0.04149191,0.0005794061,1.683944,0.04164702
4.315601,2.157816,4.111068,0.9510089,0.7516208,1.169688,-0.003631361,-0.04117106,0.0006429873,1.684494,0.0413359
4.334594,2.172878,4.134497,0.950694,0.7529819,1.169846,-0.003719088,-0.04085365,0.0007058329,1.685034,0.04102866
4.35358,2.187968,4.157929,0.9503762,0.7543431,1.169989,-0.003810146,-0.04053923,0.0007703231,1.685563,0.04072517
4.372561,2.203087,4.181363,0.950055,0.7558471,1.170117,-0.003883725,-0.04030699,0.0009016701,1.686145,0.0405037
4.391535,2.218237,4.2048,0.9497302,0.7573511,1.17023,-0.003962295,-0.04007715,0.001026324,1.686715,0.04028562
4.410504,2.233417,4.228239,0.9494012,0.7588551,1.170326,-0.004036229,-0.03984957,0.001151222,1.687272,0.04007
4.429466,2.248627,4.251679,0.9490676,0.7603591,1.170407,-0.004111723,-0.03962427,0.001276813,1.687817,0.03985749
4.448422,2.263868,4.275121,0.9487289,0.7618631,1.170471,-0.004186509,-0.03940118,0.001401029,1.688349,0.03964774
4.467371,2.279142,4.298564,0.9483842,0.7635495,1.170518,-0.004299053,-0.03934249,0.001498862,1.68895,0.03960505
4.486314,2.29445,4.322008,0.9480336,0.7652359,1.170547,-0.004410623,-0.03928442,0.001595598,1.689537,0.03956344
4.50525,2.309792,4.345453,0.9476767,0.7669223,1.170559,-0.004518751,-0.03922693,0.001687277,1.690109,0.03952238
4.524178,2.325168,4.368898,0.9473131,0.7686087,1.170553,-0.004626221,-0.03917006,0.001781783,1.690667,0.03948253
4.5431,2.340578,4.392343,0.9469425,0.770295,1.170528,-0.004736586,-0.03911375,0.001873489,1.69121,0.03944402
4.562015,2.356026,4.415787,0.946564,0.772235,1.170484,-0.004929323,-0.03920972,0.002143153,1.691852,0.03957642
4.580923,2.371514,4.43923,0.9461771,0.7741749,1.170421,-0.005118051,-0.03930468,0.002405973,1.692478,0.03970946
4.599823,2.387041,4.462673,0.9457806,0.7761148,1.170336,-0.005306795,-0.03939888,0.002664122,1.693087,0.03984384
4.618717,2.402607,4.486114,0.9453737,0.7780547,1.170231,-0.005492492,-0.039492,0.002927277,1.693677,0.03997942
4.637602,2.418212,4.509553,0.9449553,0.7799946,1.170103,-0.005682603,-0.0395841,0.003186156,1.694247,0.04011664
4.656479,2.433862,4.53299,0.9445236,0.7822725,1.169952,-0.00591671,-0.04002136,0.003582791,1.694952,0.04061469
4.675349,2.449559,4.556424,0.9440778,0.7845504,1.169777,-0.006154588,-0.04045433,0.003971872,1.695636,0.04111214
4.694211,2.465302,4.579856,0.9436164,0.7868282,1.169578,-0.006384717,-0.04088267,0.004364362,1.696297,0.04160775
4.713063,2.48109,4.603283,0.9431379,0.789106,1.169352,-0.006619037,-0.04130688,0.004753363,1.696933,0.04210302
4.731906,2.496924,4.626707,0.9426407,0.7913837,1.169101,-0.00684917,-0.0417268,0.005138043,1.697544,0.0425962
4.750741,2.512815,4.650126,0.942122,0.7941524,1.16882,-0.007180102,-0.04270395,0.005899072,1.698356,0.04370332
4.769567,2.528761,4.673542,0.9415802,0.796921,1.168511,-0.007506664,-0.04367099,0.006658075,1.699139,0.04480887
4.788383,2.544763,4.696951,0.9410121,0.7996894,1.168171,-0.007834694,-0.04462858,0.007409681,1.699892,0.04591292
4.807189,2.560821,4.720355,0.9404148,0.8024577,1.1678,-0.008157666,-0.04557626,0.008151491,1.70061,0.04701265
4.825984,2.576935,4.743751,0.9397855,0.8052258,1.167396,-0.008484107,-0.04651453,0.008886282,1.701293,0.04810974
4.844769,2.593121,4.767141,0.9391186,0.8087584,1.166955,-0.008753622,-0.04853054,0.01061399,1.702298,0.050443
4.863545,2.609378,4.790524,0.9384098,0.8122907,1.166479,-0.009019978,-0.05052594,0.01232634,1.703262,0.05278418
4.882309,2.625707,4.813897,0.9376522,0.8158227,1.165967,-0.00929287,-0.05250131,0.0140202,1.704182,0.05512994
4.901061,2.642108,4.837261,0.9368392,0.8193544,1.165416,-0.009554004,-0.05445654,0.01569645,1.705052,0.05747323
4.919798,2.65858,4.860616,0.9359642,0.8228858,1.164826,-0.009817753,-0.05639204,0.01735443,1.705869,0.05981326
4.939875,2.676008,4.882856,0.9348148,0.8699328,1.164059,0.3510615,-0.04875902,0.4642612,1.727916,0.5840891
4.961232,2.694451,4.904031,0.9314069,0.9169581,1.164997,0.7078371,-0.04099504,0.9071052,1.750871,1.151327
4.983765,2.714025,4.924226,0.9235852,0.9638439,1.169373,1.060547,-0.03311447,1.345918,1.774666,1.71387
5.007318,2.734893,4.943565,0.9092208,1.010284,1.178894,1.409222,-0.02513929,1.780736,1.799207,2.271026
5.031675,2.757259,4.962219,0.8862252,1.055694,1.19523,1.753907,-0.01709744,2.211607,1.824407,2.82271
5.054725,2.779188,4.981113,0.8631133,1.024089,1.212244,1.898329,-0.3091616,1.969548,1.806449,2.752881
5.076385,2.800581,5.000394,0.8334278,0.9906839,1.23531,2.053908,-0.5831385,1.720142,1.789427,2.741801
5.096592,2.821345,5.020195,0.7978724,0.9550794,1.26464,2.219929,-0.8385379,1.464271,1.774286,2.788426
5.115298,2.841398,5.040638,0.7571043,0.9169117,1.300405,2.395773,-1.074973,1.202948,1.762097,2.888318
5.132465,2.860669,5.061838,0.7117282,0.8758357,1.342748,2.580925,-1.292155,0.9372863,1.754029,3.03469
5.148499,2.878636,5.085452,0.6687022,0.8118193,1.385432,2.183571,-1.500451,0.7846269,1.739436,2.763146
5.163279,2.895069,5.111513,0.6222755,0.7451409,1.43249,1.79827,-1.705721,0.6128193,1.73046,2.553195
5.176671,2.909787,5.140014,0.5726187,0.6761271,1.482527,1.42545,-1.90708,0.4225852,1.727115,2.418148
5.188534,2.922656,5.170916,0.5199544,0.6052306,1.534211,1.065586,-2.103859,0.2147015,1.729294,2.368078
5.198718,2.933589,5.204151,0.4645717,0.5329964,1.586278,0.719209,-2.295592,-0.01000935,1.736718,2.40564
5.208287,2.942926,5.239616,0.4124292,0.4481025,1.632566,0.3791035,-2.509274,0.156397,1.74246,2.542565
5.217041,2.950662,5.277311,0.3576621,0.3626974,1.677013,0.03526699,-2.72306,0.3024411,1.752668,2.740031
5.224751,2.956823,5.3172,0.2998857,0.2769216,1.718473,-0.3112094,-2.936884,0.4281696,1.766286,2.984203
5.231167,2.961466,5.359209,0.2388514,0.190882,1.755755,-0.6591554,-3.150814,0.5336654,1.782179,3.26296
5.236016,2.96467,5.403219,0.1744622,0.1046288,1.787633,-1.007331,-3.365049,0.6190826,1.799171,3.566726
5.238568,2.965647,5.448116,0.1177023,0.0004435033,1.808785,-1.078255,-3.511718,0.4140579,1.812611,3.696787
5.238711,2.96441,5.49366,0.0589065,-0.1038293,1.823893,-1.132942,-3.66183,0.2098817,1.827796,3.838829
5.236356,2.960983,5.539587,-0.00114651,-0.2080821,1.832563,-1.171634,-3.815216,0.007769087,1.844339,3.991072
5.231441,2.955398,5.585612,-0.06161775,-0.3122203,1.834475,-1.194691,-3.971751,-0.1910509,1.861874,4.151938
5.223931,2.947691,5.631431,-0.1216108,-0.4161661,1.829396,-1.202572,-4.131336,-0.3853431,1.880073,4.320024
5.213871,2.938703,5.676256,-0.202967,-0.4838666,1.812445,-1.110546,-4.172119,-0.4416505,1.88687,4.339925
5.201388,2.92842,5.71981,-0.2813734,-0.5513438,1.785965,-1.015512,-4.214458,-0.4887061,1.890191,4.36254
5.186635,2.916826,5.761827,-0.3559045,-0.6187033,1.750419,-0.9182953,-4.258165,-0.5263513,1.890351,4.387743
5.169793,2.903904,5.802063,-0.4256861,-0.6860343,1.706355,-0.8197317,-4.303065,-0.5545099,1.887723,4.415406
5.151064,2.889639,5.840291,-0.4899038,-0.7534093,1.654408,-0.7206492,-4.348988,-0.5731763,1.882737,4.445397
5.130686,2.874061,5.875436,-0.5587589,-0.796548,1.584112,-0.3929788,-4.243899,-0.6117973,1.859062,4.305741
5.109028,2.857143,5.9074,-0.6194835,-0.8394726,1.507108,-0.06522943,-4.144046,-0.623139,1.832989,4.191143
5.086453,2.838886,5.93613,-0.6717046,-0.8817967,1.425221,0.2602672,-4.049242,-0.607541,1.805549,4.102829
5.063315,2.819315,5.961617,-0.7152888,-0.9231039,1.340256,0.5813,-3.959445,-0.5655585,1.777652,4.041655
5.03995,2.798484,5.983895,-0.7503282,-0.9629703,1.253987,0.8957769,-3.874761,-0.4979387,1.750082,4.008008
5.01676,2.777533,6.003284,-0.782892,-0.9669644,1.149675,0.9862831,-3.619666,-0.4428408,1.694017,3.777678
4.993968,2.756512,6.019958,-0.8062522,-0.9686698,1.047155,1.073753,-3.369096,-0.3769169,1.638565,3.556096
4.971762,2.735472,6.034102,-0.8213241,-0.9680589,0.9475416,1.157434,-3.123191,-0.3006008,1.584155,3.344299
4.950295,2.714463,6.045908,-0.8291016,-0.9651175,0.8517994,1.236683,-2.882107,-0.214375,1.531151,3.143546
4.929689,2.693536,6.055573,-0.8306345,-0.9598452,0.7607447,1.310943,-2.646001,-0.1187353,1.479861,2.955333
4.909746,2.673138,6.063286,-0.8267783,-0.939334,0.6696258,1.357562,-2.358909,-0.1452561,1.419264,2.725532
4.890526,2.653321,6.069233,-0.8181356,-0.9164508,0.5847194,1.405541,-2.074248,-0.1615708,1.36056,2.510808
4.872074,2.634132,6.073596,-0.8053957,-0.8913081,0.5064483,1.45442,-1.792276,-0.1677968,1.30368,2.314249
4.854416,2.615613,6.076556,-0.7892284,-0.8640385,0.435166,1.503782,-1.51325,-0.164086,1.248525,2.139675
4.837571,2.597802,6.078292,-0.770277,-0.8347918,0.3711669,1.553307,-1.237435,-0.1506201,1.194977,1.991656
4.821744,2.581328,6.079547,-0.7468561,-0.7790266,0.3085573,1.371095,-0.9409803,-0.07695161,1.122446,1.664712
4.806905,2.566156,6.080495,-0.7219372,-0.7216829,0.2533342,1.189749,-0.6492788,0.0005866193,1.051759,1.355384
4.793017,2.552256,6.081275,-0.6963456,-0.6631007,0.2044873,1.009182,-0.3623758,0.08186328,0.983064,1.075391
4.780047,2.539605,6.081996,-0.6708373,-0.6035445,0.160978,0.8293584,-0.08030474,0.1667383,0.9166256,0.8497564
4.767958,2.528184,6.082736,-0.6461167,-0.5432184,0.1217578,0.650269,0.1969211,0.2550986,0.8528646,0.7257431
4.757226,2.517905,6.083307,-0.6223112,-0.4762752,0.0849431,0.4751184,0.2624216,0.5464713,0.7882414,0.7702165
4.747793,2.508794,6.083738,-0.6015719,-0.40875,0.05051483,0.3025485,0.3226283,0.8364294,0.7290522,0.9461706
4.739576,2.500901,6.084041,-0.5854662,-0.3407128,0.01756507,0.1326129,0.3776401,1.124934,0.6776167,1.194017
4.732464,2.494291,6.084205,-0.5755566,-0.2722963,-0.01478158,-0.03464499,0.4275686,1.411957,0.6368903,1.475682
4.726315,2.489048,6.084207,-0.5733998,-0.2037319,-0.04736324,-0.1991199,0.4725338,1.697482,0.6103584,1.77324
4.719961,2.484544,6.082979,-0.5795291,-0.1728953,-0.07620941,-0.01186607,0.4120909,1.664199,0.6095528,1.714502
4.713232,2.480762,6.080532,-0.5934478,-0.1423992,-0.1050268,0.175128,0.3584432,1.629736,0.6192644,1.677853
4.705967,2.477687,6.076893,-0.6149518,-0.1123811,-0.132924,0.3616286,0.3115101,1.594102,0.6391119,1.664023
4.698013,2.475308,6.072107,-0.6438273,-0.08297087,-0.1590301,0.5474271,0.2712127,1.557356,0.6683474,1.672899
4.68922,2.47362,6.066237,-0.6798534,-0.0543001,-0.1824939,0.7323138,0.237469,1.519574,0.7060122,1.703461
4.67796,2.472582,6.060874,-0.7206577,-0.03770564,-0.2014837,0.4419301,0.2907651,0.9831801,0.7492429,1.116463
4.664163,2.472055,6.056073,-0.7657439,-0.02179724,-0.218346,0.1503371,0.3425189,0.4543031,0.7965637,0.5884826
4.647811,2.471978,6.051867,-0.8128679,-0.006258503,-0.2342552,-0.1423764,0.3926847,-0.06715314,0.8459722,0.4230625
4.628942,2.472362,6.048266,-0.8598335,0.009297818,-0.2503979,-0.4361414,0.4412744,-0.5812426,0.8955999,0.8501678
4.607638,2.473292,6.045256,-0.9044839,0.02523954,-0.2679851,-0.7309028,0.4883514,-1.088014,0.9436865,1.398743
4.58605,2.473429,6.041395,-0.9340249,-0.01463835,-0.2828827,-0.5554582,0.3399975,-0.9800854,0.9760325,1.176733
4.564218,2.472745,6.036648,-0.9606045,-0.05414027,-0.2993282,-0.3839374,0.1909338,-0.872766,1.007616,0.9724115
4.542181,2.47122,6.030991,-0.9845111,-0.0933321,-0.3168818,-0.2163198,0.0412337,-0.7660205,1.038454,0.7970457
4.519979,2.46884,6.024411,-1.006025,-0.1322534,-0.3350966,-0.05257758,-0.1090369,-0.6598366,1.068582,0.6708485
4.49765,2.465597,6.016906,-1.025421,-0.1709239,-0.3535214,0.1073194,-0.2598184,-0.5542023,1.098035,0.6214203
4.474867,2.462129,6.00888,-1.045905,-0.1830177,-0.3747386,0.1335103,-0.2739042,-0.5681133,1.125985,0.6446714
4.451675,2.458443,6.000341,-1.06418,-0.1948351,-0.39557,0.1593583,-0.2881064,-0.5817831,1.151918,0.6684848
4.428123,2.454547,5.9913,-1.08019,-0.2063874,-0.4159121,0.1848604,-0.3024209,-0.5952139,1.17575,0.6927564
4.404259,2.450449,5.981768,-1.093878,-0.2176889,-0.4356609,0.2100141,-0.3168437,-0.6084134,1.197397,0.7174
4.380132,2.446156,5.971759,-1.105193,-0.2287567,-0.4547117,0.2348305,-0.331369,-0.6213754,1.216776,0.7423329
4.356102,2.44189,5.96138,-1.114731,-0.2260691,-0.4742928,0.2212949,-0.3444513,-0.5283499,1.23235,0.6684098
4.332211,2.437645,5.95065,-1.122034,-0.2232076,-0.4930512,0.2071317,-0.3576643,-0.4364095,1.245746,0.6010662
4.30849,2.433418,5.939588,-1.127468,-0.2202145,-0.5110302,0.1923426,-0.3709964,-0.3455464,1.257311,0.5422511
4.284966,2.429203,5.92821,-1.131395,-0.2171213,-0.5282775,0.1769425,-0.3844369,-0.2557545,1.267388,0.4944803
4.261659,2.424998,5.916535,-1.134171,-0.2139511,-0.5448452,0.1609451,-0.3979772,-0.167024,1.276314,0.4606367
4.238553,2.420927,5.904354,-1.136221,-0.2038386,-0.5613402,0.2131186,-0.4176596,-0.08755733,1.283609,0.4769962
4.21566,2.416993,5.891687,-1.137775,-0.1936546,-0.5769706,0.2640794,-0.437571,-0.008538537,1.290321,0.5111548
4.192983,2.4132,5.878564,-1.139162,-0.1833906,-0.5915237,0.3138386,-0.4577058,0.07002331,1.29662,0.559368
4.170521,2.409556,5.865013,-1.140711,-0.1730413,-0.604794,0.3624097,-0.4780601,0.1481164,1.302666,0.6179165
4.148267,2.406068,5.85107,-1.142751,-0.1626066,-0.6165841,0.4098204,-0.4986308,0.225742,1.308624,0.6837726
4.125769,2.40304,5.837121,-1.145739,-0.143204,-0.6271397,0.3527109,-0.4597314,0.1582832,1.313975,0.6006759
4.103011,2.400465,5.823192,-1.14932,-0.1237426,-0.6362045,0.2966634,-0.4209274,0.09124688,1.319471,0.5229867
4.079986,2.39834,5.809303,-1.153222,-0.1042379,-0.644021,0.2416716,-0.3822181,0.0246424,1.324972,0.4528831
4.056689,2.396661,5.795469,-1.157176,-0.08469984,-0.6508249,0.1877138,-0.3436032,-0.04152208,1.330339,0.3937305
4.033125,2.395427,5.781702,-1.160906,-0.06513453,-0.6568452,0.1347762,-0.3050839,-0.1072462,1.335436,0.3503463
4.0096,2.394346,5.767781,-1.163975,-0.05641548,-0.6620301,0.1472385,-0.3202873,-0.07521176,1.340263,0.3604441
3.986122,2.393418,5.753719,-1.166705,-0.04767767,-0.6666301,0.1593482,-0.3354507,-0.04346271,1.34457,0.3739091
3.962694,2.392645,5.73953,-1.169228,-0.0389239,-0.6705945,0.1711129,-0.3505731,-0.01200394,1.348446,0.3902886
3.939317,2.392027,5.725229,-1.171676,-0.03015718,-0.673875,0.1825415,-0.3656535,0.01917198,1.351977,0.409135
3.915991,2.391566,5.710834,-1.174182,-0.02138072,-0.6764252,0.1936358,-0.3806915,0.05006336,1.355253,0.4300316
3.89254,2.391359,5.696455,-1.176914,-0.009680882,-0.6782267,0.1809831,-0.3631823,0.0250681,1.358386,0.4065522
3.868962,2.391407,5.682105,-1.179741,0.002022773,-0.6792958,0.1686262,-0.3457648,0.0002953509,1.361336,0.3846923
3.845256,2.391709,5.667796,-1.182563,0.01372886,-0.6796833,0.1565565,-0.3284389,-0.02425961,1.364043,0.3646514
3.821426,2.392264,5.65354,-1.185285,0.02543651,-0.6794381,0.1447835,-0.3112043,-0.04859211,1.366449,0.3466577
3.797473,2.393071,5.639348,-1.187807,0.03714514,-0.678607,0.133287,-0.2940609,-0.0727004,1.368493,0.330942
3.773514,2.394064,5.625225,-1.190012,0.04679315,-0.6772494,0.1199047,-0.2895451,-0.06155173,1.370031,0.3193777
3.749552,2.395242,5.611183,-1.191973,0.05643989,-0.6754102,0.1066041,-0.2850844,-0.0505841,1.37119,0.3085389
3.72559,2.396604,5.597229,-1.193737,0.0660841,-0.6731426,0.09338094,-0.280678,-0.03979,1.372041,0.2984684
3.70163,2.39815,5.583371,-1.195351,0.07572509,-0.6705002,0.08023,-0.2763252,-0.02916807,1.37265,0.2892115
3.677674,2.399881,5.569615,-1.19686,0.08536251,-0.667536,0.06715506,-0.2720251,-0.0187176,1.373086,0.2808163
3.653732,2.401791,5.555923,-1.198308,0.09480889,-0.6643064,0.06838942,-0.2685007,-0.00495362,1.373402,0.2771178
3.629804,2.40388,5.542299,-1.199754,0.1042508,-0.6608033,0.06953833,-0.2650303,0.008686169,1.373659,0.2741388
3.605889,2.406149,5.528751,-1.201254,0.1136874,-0.6570221,0.07060365,-0.2616132,0.02220142,1.373905,0.271881
3.581984,2.408597,5.515285,-1.202867,0.1231178,-0.6529586,0.07159249,-0.258249,0.03559129,1.374191,0.2703419
3.558085,2.411226,5.501906,-1.204647,0.132541,-0.6486094,0.0725028,-0.2549365,0.04885699,1.374568,0.2695112
3.534114,2.414065,5.488678,-1.206661,0.1428493,-0.6439515,0.05751481,-0.2387468,0.03860688,1.375176,0.248593
3.510067,2.417116,5.475606,-1.208856,0.1531505,-0.6390662,0.04271286,-0.2227188,0.02840354,1.375934,0.2285493
3.485939,2.420377,5.462691,-1.211191,0.1634462,-0.6340145,0.02809866,-0.2068506,0.01825157,1.376834,0.2095468
3.46173,2.423849,5.449935,-1.213622,0.1737382,-0.6288567,0.01366469,-0.1911405,0.008150271,1.377869,0.1918016
3.437439,2.427531,5.437338,-1.216107,0.1840283,-0.6236519,-0.0005871374,-0.1755874,-0.001896862,1.37903,0.1755986
3.413128,2.431354,5.424852,-1.218568,0.1915009,-0.618529,-0.003073036,-0.1732335,0.008121418,1.379912,0.173451
3.388797,2.435319,5.412478,-1.22108,0.1989734,-0.6134273,-0.00556093,-0.170903,0.01802825,1.380913,0.1719412
3.364444,2.439427,5.400215,-1.223683,0.2064456,-0.608357,-0.008058332,-0.1685955,0.0278273,1.38207,0.1710665
3.340065,2.443676,5.388063,-1.226416,0.2139171,-0.6033285,-0.01056684,-0.1663111,0.03751954,1.383424,0.1708179
3.315658,2.448068,5.376019,-1.229318,0.2213875,-0.5983524,-0.01308771,-0.1640493,0.04710836,1.385013,0.1711802
3.29116,2.452603,5.364094,-1.23242,0.2282986,-0.593453,-0.01735093,-0.154497,0.03851298,1.386783,0.1601675
3.266569,2.457281,5.352285,-1.235694,0.235209,-0.5886339,-0.02155037,-0.1450465,0.02998494,1.388795,0.1496729
3.241882,2.462103,5.34059,-1.239103,0.2421194,-0.583912,-0.02568704,-0.1356965,0.02152604,1.391026,0.1397738
3.217098,2.467068,5.329007,-1.242613,0.2490308,-0.5793039,-0.02976156,-0.126446,0.01313488,1.393447,0.1305636
3.192214,2.472176,5.317532,-1.246187,0.2559439,-0.5748256,-0.0337845,-0.117294,0.004814258,1.396035,0.1221575
3.167252,2.477383,5.306158,-1.249756,0.2608498,-0.5705358,-0.03807595,-0.1132856,0.002914435,1.398371,0.1195488
3.142212,2.482688,5.294883,-1.253345,0.2657587,-0.5664073,-0.04232032,-0.1093189,0.001018597,1.400828,0.1172291
3.117094,2.488092,5.283702,-1.256948,0.270671,-0.5624569,-0.04651845,-0.1053935,-0.0008674053,1.403402,0.1152064
3.091896,2.493595,5.272612,-1.260555,0.2755868,-0.5587012,-0.05067223,-0.1015092,-0.002747956,1.406092,0.1134872
3.066619,2.499197,5.261608,-1.264159,0.2805066,-0.5551566,-0.05477883,-0.09766536,-0.004621874,1.408893,0.1120741
3.041273,2.504868,5.250666,-1.267725,0.2839668,-0.5518636,-0.05315692,-0.09668697,-0.003941324,1.411494,0.1104063
3.015857,2.510607,5.23978,-1.271281,0.2874308,-0.5487897,-0.05155048,-0.09571794,-0.003264527,1.414193,0.108766
2.990373,2.516417,5.228949,-1.274829,0.290898,-0.5459285,-0.04995982,-0.094758,-0.002592545,1.416986,0.1071531
2.964818,2.522296,5.218165,-1.278373,0.2943681,-0.5432735,-0.04838808,-0.09380703,-0.00192306,1.419872,0.1055692
2.939195,2.528244,5.207427,-1.281914,0.2978408,-0.5408184,-0.04683138,-0.09286511,-0.001258226,1.422848,0.1040129
2.913485,2.534253,5.196741,-1.285443,0.3007321,-0.5385635,-0.04832004,-0.0898015,-0.006257687,1.425782,0.102168
2.887689,2.540323,5.186102,-1.288952,0.3036259,-0.5365073,-0.04978627,-0.0867731,-0.01121266,1.428785,0.1006676
2.861808,2.546455,5.175508,-1.292419,0.3065224,-0.5346554,-0.05122688,-0.08377954,-0.01612483,1.431838,0.0995149
2.835844,2.552648,5.164952,-1.295825,0.3094218,-0.5330132,-0.05264965,-0.0808205,-0.02099394,1.434924,0.09871517
2.809797,2.558902,5.154431,-1.29915,0.3123242,-0.5315862,-0.05404527,-0.07789547,-0.02581776,1.438027,0.09826063
2.783694,2.565189,5.143928,-1.302356,0.3140731,-0.5303864,-0.05237361,-0.07945352,-0.02332692,1.440862,0.0979796
2.757536,2.571511,5.133437,-1.305471,0.3158246,-0.5293991,-0.05072703,-0.08099417,-0.02085871,1.443697,0.09781806
2.731325,2.577866,5.122957,-1.308504,0.3175783,-0.5286176,-0.04910159,-0.08251761,-0.01841013,1.446539,0.09777042
2.705063,2.584255,5.112483,-1.311466,0.3193338,-0.5280353,-0.04749686,-0.08402389,-0.0159827,1.449393,0.0978336
2.67875,2.590678,5.10201,-1.314366,0.3210906,-0.5276461,-0.04590888,-0.08551341,-0.01357791,1.452263,0.09800269
2.652375,2.597132,5.091535,-1.317209,0.3225964,-0.5274438,-0.04400999,-0.08537279,-0.01530952,1.455096,0.09726137
2.625938,2.603619,5.081055,-1.319991,0.3241032,-0.5274203,-0.04212703,-0.08523577,-0.01702414,1.457941,0.09659009
2.599442,2.610137,5.070567,-1.322706,0.3256108,-0.5275681,-0.04025994,-0.08510221,-0.01871951,1.460788,0.09598786
2.572888,2.616687,5.060066,-1.325346,0.3271193,-0.5278797,-0.03840683,-0.08497202,-0.020393,1.463628,0.09545262
2.546278,2.623268,5.049551,-1.327905,0.3286285,-0.5283475,-0.03656926,-0.0848451,-0.02204662,1.466452,0.09498449
2.519618,2.629872,5.039021,-1.330371,0.3297101,-0.5289629,-0.0355997,-0.08559386,-0.02226905,1.469149,0.09533918
2.492909,2.636497,5.028471,-1.332748,0.3307923,-0.5297228,-0.03464193,-0.08633575,-0.02248385,1.471817,0.095705
2.466155,2.643145,5.017899,-1.335034,0.331875,-0.5306235,-0.03368622,-0.0870707,-0.02269576,1.474455,0.09607895
2.439356,2.649815,5.007304,-1.33723,0.332958,-0.531661,-0.03274,-0.08779899,-0.02290433,1.47706,0.09646335
2.412514,2.656507,4.996681,-1.339333,0.3340412,-0.5328314,-0.03180319,-0.0885203,-0.02310652,1.47963,0.09685658
2.385637,2.663213,4.986023,-1.341339,0.3348001,-0.5341288,-0.02918881,-0.09014717,-0.02161365,1.482085,0.09718873
2.358726,2.669934,4.975328,-1.343258,0.335559,-0.5355448,-0.02660207,-0.09175809,-0.02013015,1.484503,0.09763421
2.331783,2.67667,4.964594,-1.345094,0.3363178,-0.537069,-0.02404266,-0.09335309,-0.01865613,1.486887,0.09818808
2.30481,2.683419,4.953818,-1.346855,0.3370765,-0.5386913,-0.02151219,-0.09493235,-0.01719565,1.489237,0.09884643
2.277808,2.690184,4.942999,-1.348544,0.3378352,-0.5404016,-0.01901579,-0.09649606,-0.01574188,1.491555,0.0996037
2.25077,2.696966,4.93214,-1.350168,0.3386223,-0.5421902,-0.01770443,-0.09669832,-0.0166976,1.493851,0.0997137
2.223699,2.703764,4.92124,-1.351723,0.3394094,-0.5440516,-0.01640255,-0.09689946,-0.01764121,1.49611,0.0998487
2.196595,2.710578,4.910297,-1.353205,0.3401964,-0.5459807,-0.01511001,-0.09709924,-0.01857413,1.49833,0.1000079
2.16946,2.71741,4.89931,-1.35461,0.3409833,-0.547972,-0.0138307,-0.09729777,-0.01949596,1.500503,0.100191
2.142296,2.724258,4.888277,-1.355934,0.3417702,-0.5500205,-0.01256245,-0.09749515,-0.02040395,1.502626,0.1003964
2.115113,2.731117,4.877197,-1.357172,0.3423623,-0.552119,-0.01099841,-0.09862256,-0.01891556,1.504647,0.1010207
2.08791,2.737987,4.866069,-1.358332,0.3429544,-0.554263,-0.009457183,-0.09973893,-0.01743636,1.506616,0.1016923
2.060691,2.744868,4.854892,-1.359419,0.3435465,-0.5564466,-0.007934712,-0.1008445,-0.01596765,1.508534,0.1024087
2.033456,2.75176,4.843665,-1.360438,0.3441386,-0.5586634,-0.006428848,-0.1019391,-0.01450995,1.510407,0.1031671
2.006207,2.758662,4.832387,-1.361396,0.3447306,-0.5609076,-0.004941178,-0.103023,-0.01306535,1.512235,0.1039656
1.978941,2.765579,4.82106,-1.362298,0.3453853,-0.5631739,-0.003453224,-0.1032638,-0.01273036,1.514038,0.1041029
1.951659,2.772508,4.809682,-1.363145,0.3460401,-0.5654556,-0.001975245,-0.1035029,-0.012398,1.5158,0.1042615
1.924363,2.779451,4.798254,-1.363939,0.346695,-0.5677467,-0.000512935,-0.1037397,-0.01206432,1.517519,0.1044401
1.897052,2.786407,4.786775,-1.364681,0.3473501,-0.5700415,0.0009341745,-0.1039744,-0.01173102,1.519195,0.1046383
1.86973,2.793375,4.775246,-1.365371,0.3480053,-0.5723341,0.002360572,-0.104207,-0.01139876,1.520826,0.1048552
1.842395,2.800358,4.763669,-1.366012,0.3486803,-0.5746189,0.003029803,-0.1040893,-0.01107454,1.522417,0.1047206
1.81505,2.807353,4.752045,-1.366604,0.3493555,-0.5768932,0.003697354,-0.1039732,-0.01075291,1.523963,0.1045931
1.787695,2.814362,4.740374,-1.36715,0.350031,-0.5791541,0.004353747,-0.1038584,-0.01043202,1.525464,0.1044718
1.760331,2.821384,4.728655,-1.36765,0.3507069,-0.5813989,0.004997465,-0.1037448,-0.01011321,1.52692,0.1043563
1.73296,2.82842,4.71689,-1.368105,0.3513831,-0.583625,0.005641615,-0.1036325,-0.009795454,1.528332,0.1042472
1.705583,2.835469,4.705079,-1.368517,0.3520405,-0.5858296,0.006540823,-0.1035768,-0.008720521,1.529695,0.1041489
1.678203,2.84253,4.693221,-1.36889,0.3526983,-0.5880093,0.007434613,-0.1035223,-0.007655062,1.531017,0.1040708
1.650819,2.849603,4.681317,-1.369229,0.3533565,-0.5901604,0.00830981,-0.1034682,-0.00659753,1.532298,0.1040108
1.623432,2.856689,4.669369,-1.369537,0.3540151,-0.5922795,0.009181542,-0.1034152,-0.005548771,1.533543,0.1039702
1.596043,2.863788,4.657377,-1.369819,0.3546741,-0.594363,0.0100367,-0.103363,-0.004508382,1.534752,0.1039469
1.568649,2.870902,4.645343,-1.370079,0.3554181,-0.5964085,0.0103788,-0.1025098,-0.004495769,1.53595,0.1031319
1.54125,2.878031,4.633268,-1.370317,0.3561625,-0.5984136,0.0107194,-0.1016654,-0.004481982,1.537114,0.1023271
1.513847,2.885175,4.621154,-1.370534,0.3569073,-0.6003769,0.01105846,-0.1008292,-0.004466842,1.538245,0.1015321
1.486441,2.892333,4.609001,-1.370729,0.3576526,-0.6022971,0.01139618,-0.1000016,-0.004451623,1.539343,0.1007473
1.45903,2.899507,4.59681,-1.370903,0.3583983,-0.6041728,0.01172882,-0.0991824,-0.004436839,1.540405,0.09997199
1.431619,2.906695,4.584582,-1.371055,0.3591182,-0.6060024,0.01188872,-0.09842114,-0.003785794,1.541427,0.09920885
1.404207,2.913896,4.57232,-1.371189,0.3598384,-0.6077854,0.01204394,-0.09766775,-0.003140774,1.542416,0.09845766
1.376795,2.921112,4.560022,-1.371308,0.3605591,-0.6095212,0.01219638,-0.09692212,-0.002501198,1.543374,0.0977185
1.349383,2.928342,4.547691,-1.371413,0.3612802,-0.6112092,0.01234796,-0.09618399,-0.001868185,1.544304,0.09699135
1.32197,2.935585,4.535326,-1.371507,0.3620018,-0.6128488,0.01249313,-0.09545339,-0.001240771,1.545206,0.09627548
1.294557,2.942844,4.522932,-1.371594,0.3627427,-0.6144395,0.0126069,-0.09435549,-0.0009495039,1.546088,0.09519871
1.267143,2.950117,4.510506,-1.371674,0.363484,-0.6159807,0.012715,-0.09326858,-0.0006604497,1.546946,0.09413361
1.239728,2.957404,4.498051,-1.371748,0.3642257,-0.6174719,0.01281954,-0.09219265,-0.0003721559,1.547781,0.09308042
1.212313,2.964707,4.485568,-1.371819,0.3649678,-0.6189128,0.01293008,-0.09112755,-8.717754E-05,1.548593,0.09204035
1.184897,2.972024,4.473057,-1.371886,0.3657102,-0.6203029,0.01303743,-0.09007322,0.0001955706,1.549384,0.09101208
1.15748,2.979356,4.460521,-1.371952,0.3664472,-0.6216418,0.0128221,-0.08876368,0.0002759461,1.550153,0.08968541
1.130062,2.986702,4.447961,-1.372016,0.3671846,-0.6229302,0.01261087,-0.08746731,0.0003537174,1.550901,0.08837245
1.102643,2.994064,4.435378,-1.37208,0.3679223,-0.6241691,0.01239779,-0.08618397,0.0004314274,1.55163,0.0870722
1.075222,3.00144,4.422773,-1.372143,0.3686603,-0.6253592,0.01218674,-0.08491355,0.000508034,1.552341,0.08578511
1.047801,3.00883,4.410146,-1.372206,0.3693986,-0.6265014,0.01197754,-0.08365583,0.0005852182,1.553032,0.08451096
1.020378,3.016234,4.3975,-1.37227,0.3700898,-0.6275964,0.01182114,-0.08241941,0.0009099977,1.553695,0.0832678
0.9929556,3.023651,4.384833,-1.372335,0.3707814,-0.6286449,0.01166012,-0.08119535,0.001231965,1.554342,0.08203756
0.9655325,3.031083,4.372148,-1.372404,0.3714731,-0.6296476,0.01150587,-0.07998369,0.001549316,1.554973,0.08082188
0.9381086,3.038527,4.359445,-1.372477,0.372165,-0.630605,0.01134691,-0.07878433,0.001864632,1.555591,0.07961909
0.910684,3.045986,4.346725,-1.372556,0.3728572,-0.6315179,0.01119086,-0.07759697,0.002176424,1.556197,0.07842998
0.8832572,3.053458,4.33399,-1.372643,0.3735279,-0.6323868,0.01091164,-0.07615501,0.00209044,1.556786,0.07696115
0.8558279,3.060943,4.32124,-1.372736,0.3741989,-0.6332129,0.01063718,-0.07472757,0.002005275,1.557365,0.07550749
0.8283961,3.068442,4.308476,-1.372836,0.37487,-0.6339972,0.01035803,-0.07331419,0.001920746,1.557934,0.07406719
0.8009618,3.075954,4.295699,-1.372942,0.3755412,-0.6347409,0.01008354,-0.07191502,0.001836435,1.558492,0.07264172
0.7735246,3.08348,4.28291,-1.373055,0.3762126,-0.6354451,0.009810184,-0.07052975,0.001753658,1.55904,0.07123034
0.7460852,3.091017,4.27011,-1.373173,0.3768194,-0.6361105,0.009484899,-0.06920321,0.001825793,1.559562,0.06987404
0.7186432,3.098567,4.257299,-1.373298,0.3774263,-0.6367388,0.00916455,-0.0678899,0.001897418,1.560075,0.06853195
0.6911985,3.106128,4.244478,-1.373429,0.3780332,-0.6373312,0.008847275,-0.06658965,0.001968321,1.560579,0.06720364
0.663751,3.113702,4.231647,-1.373567,0.3786403,-0.637889,0.008533239,-0.06530247,0.002038172,1.561076,0.06588917
0.6363006,3.121288,4.218809,-1.373713,0.3792474,-0.6384134,0.008223951,-0.06402828,0.002107204,1.561566,0.06458865
0.6088467,3.128885,4.205962,-1.373866,0.3797987,-0.6389054,0.007966928,-0.06272038,0.002085568,1.562036,0.06325874
0.5813893,3.136492,4.193107,-1.374027,0.38035,-0.6393663,0.007712439,-0.06142548,0.002063813,1.5625,0.06194216
0.5539283,3.144111,4.180246,-1.374195,0.3809014,-0.639797,0.00746247,-0.06014358,0.002041669,1.562958,0.06063915
0.5264633,3.151741,4.167378,-1.374371,0.3814529,-0.6401985,0.00721496,-0.0588746,0.002019889,1.563412,0.05934942
0.4989943,3.159381,4.154505,-1.374555,0.3820043,-0.6405719,0.006964086,-0.05761819,0.00199855,1.563861,0.05807193
0.4715208,3.167032,4.141626,-1.374746,0.3824981,-0.640918,0.006649561,-0.05634104,0.001867484,1.564291,0.05676282
0.4440427,3.174692,4.128743,-1.374943,0.382992,-0.6412382,0.00633823,-0.05507644,0.001737306,1.564717,0.05546716
0.4165598,3.182363,4.115856,-1.375148,0.3834859,-0.6415336,0.006036784,-0.05382475,0.00160827,1.565138,0.0541861
0.3890721,3.190043,4.102965,-1.375358,0.3839797,-0.6418055,0.005735663,-0.05258546,0.001480215,1.565556,0.05291805
0.3615793,3.197733,4.090072,-1.375574,0.3844737,-0.6420551,0.005441438,-0.05135857,0.001352974,1.565969,0.05166375
0.3340818,3.205431,4.077175,-1.375795,0.3848971,-0.6422834,0.005200475,-0.05024002,0.00134691,1.566361,0.05052641
0.3065796,3.213138,4.064275,-1.376021,0.3853205,-0.6424915,0.004966665,-0.04913284,0.00133997,1.566748,0.04940141
0.2790724,3.220854,4.051373,-1.376252,0.385744,-0.6426803,0.00473227,-0.04803678,0.001333691,1.567133,0.04828773
0.2515602,3.228577,4.038469,-1.376488,0.3861675,-0.6428507,0.004504983,-0.04695167,0.001326927,1.567514,0.04718596
0.2240429,3.23631,4.025564,-1.376729,0.386591,-0.6430036,0.004279768,-0.04587738,0.001319845,1.567893,0.04609547
0.19652,3.244049,4.012657,-1.376975,0.3869616,-0.6431398,0.004070867,-0.04479729,0.001186906,1.568257,0.04499753
0.1689914,3.251796,3.99975,-1.377226,0.3873322,-0.6432603,0.0038643,-0.04372811,0.001055434,1.568618,0.04391121
0.1414571,3.259551,3.986841,-1.377481,0.3877028,-0.6433658,0.003657765,-0.04266933,0.0009250547,1.568976,0.04283581
0.1139169,3.267313,3.973932,-1.377739,0.3880734,-0.6434572,0.003455347,-0.04162117,0.0007957013,1.569332,0.04177193
0.0863708,3.275082,3.961023,-1.378,0.3884441,-0.6435351,0.003254889,-0.04058349,0.0006675757,1.569685,0.04071927
0.058819,3.282858,3.948114,-1.378264,0.3887558,-0.6436005,0.003065677,-0.03963598,0.0005991649,1.570021,0.03975888
0.03126142,3.290639,3.935205,-1.378531,0.3890675,-0.643654,0.002876464,-0.03869791,0.0005313543,1.570354,0.03880831
0.003698014,3.298428,3.922296,-1.378799,0.3893793,-0.6436965,0.002691024,-0.03776934,0.0004640968,1.570684,0.03786793
-0.02387123,3.306222,3.909388,-1.379069,0.389691,-0.6437286,0.002504774,-0.0368499,0.0003976476,1.571011,0.03693707
-0.05144635,3.314023,3.896481,-1.37934,0.3900027,-0.643751,0.002322228,-0.03593973,0.0003314522,1.571336,0.03601621
-0.07902732,3.321828,3.883574,-1.379613,0.390265,-0.6437644,0.002197554,-0.03509441,0.0002777396,1.571646,0.03516424
-0.1066142,3.329639,3.870668,-1.379887,0.3905272,-0.6437695,0.002077842,-0.03425754,0.0002243762,1.571954,0.03432123
-0.1342069,3.337456,3.857764,-1.380162,0.3907895,-0.6437666,0.001958417,-0.03342885,0.0001713621,1.572259,0.0334866
-0.1618055,3.345277,3.84486,-1.380437,0.3910517,-0.6437562,0.001838258,-0.03260852,0.0001191563,1.572562,0.03266051
-0.18941,3.353104,3.831958,-1.380713,0.3913139,-0.6437387,0.001721287,-0.03179635,6.693229E-05,1.572862,0.03184298
-0.2170205,3.360935,3.819057,-1.380989,0.3915363,-0.6437146,0.001610641,-0.03102192,-2.149816E-05,1.57315,0.03106371
-0.2446371,3.368771,3.806157,-1.381265,0.3917587,-0.6436844,0.001501094,-0.03025522,-0.0001096155,1.573435,0.03029264
-0.2722596,3.376611,3.793259,-1.381541,0.3919811,-0.6436484,0.001391713,-0.0294962,-0.0001963958,1.573718,0.02952967
-0.2998881,3.384456,3.780363,-1.381816,0.3922035,-0.6436072,0.001282555,-0.02874499,-0.0002825008,1.573997,0.02877498
-0.3275225,3.392305,3.767469,-1.382089,0.3924258,-0.6435611,0.001176338,-0.02800111,-0.0003678989,1.574274,0.02802822
-0.3551627,3.400157,3.754576,-1.382362,0.3926097,-0.6435105,0.001106246,-0.02734088,-0.0003861711,1.574539,0.02736597
-0.3828084,3.408014,3.741685,-1.382633,0.3927935,-0.6434557,0.001036675,-0.02668724,-0.0004045533,1.5748,0.02671044
-0.4104598,3.415874,3.728796,-1.382902,0.3929773,-0.643397,0.0009679699,-0.02604015,-0.0004227127,1.575058,0.02606156
-0.4381168,3.423738,3.715909,-1.38317,0.3931611,-0.6433346,0.0009027112,-0.02539967,-0.0004407678,1.575314,0.02541953
-0.4657794,3.431605,3.703023,-1.383435,0.3933449,-0.6432688,0.0008363076,-0.02476561,-0.0004581983,1.575566,0.02478396
-0.4934475,3.439476,3.69014,-1.3837,0.3935027,-0.6431999,0.0007997243,-0.02416224,-0.0005012834,1.575809,0.02418066
-0.5211213,3.44735,3.677259,-1.383962,0.3936604,-0.643128,0.0007633168,-0.02356501,-0.0005439498,1.57605,0.02358365
-0.5488004,3.455227,3.664379,-1.384222,0.3938181,-0.6430532,0.000728273,-0.02297376,-0.0005856361,1.576287,0.02299276
-0.576485,3.463107,3.651502,-1.38448,0.3939758,-0.6429756,0.0006944789,-0.02238835,-0.0006274598,1.576521,0.02240791
-0.6041751,3.47099,3.638627,-1.384735,0.3941335,-0.6428955,0.0006591934,-0.02180887,-0.0006685307,1.576752,0.02182907
-0.6318704,3.478876,3.625754,-1.384988,0.3942691,-0.6428128,0.0006384135,-0.02127619,-0.0006892611,1.576975,0.02129693
-0.659571,3.486765,3.612883,-1.385238,0.3944047,-0.6427278,0.0006160581,-0.02074877,-0.0007099887,1.577193,0.02077005
-0.6872767,3.494657,3.600014,-1.385486,0.3945403,-0.6426404,0.0005939345,-0.02022662,-0.0007300186,1.577409,0.0202485
-0.7149876,3.502551,3.587147,-1.38573,0.3946759,-0.6425508,0.0005738744,-0.01970988,-0.0007506124,1.577621,0.01973252
-0.7427034,3.510448,3.574283,-1.385972,0.3948115,-0.6424591,0.0005541235,-0.01919812,-0.0007713508,1.57783,0.0192216
-0.7704242,3.518347,3.561421,-1.38621,0.3949316,-0.6423653,0.0005633155,-0.01872683,-0.0007678295,1.578032,0.01875103
-0.7981498,3.526248,3.548561,-1.386446,0.3950517,-0.6422693,0.0005724911,-0.0182601,-0.0007638127,1.57823,0.01828503
-0.8258802,3.534153,3.535704,-1.386679,0.3951718,-0.6421712,0.000581509,-0.01779803,-0.0007606065,1.578424,0.01782376
-0.8536153,3.542059,3.522848,-1.386909,0.3952919,-0.6420709,0.0005877741,-0.01734055,-0.0007565569,1.578615,0.01736699
-0.881355,3.549968,3.509995,-1.387135,0.395412,-0.6419684,0.0005976469,-0.01688786,-0.0007518582,1.578803,0.01691515
-0.9090993,3.557879,3.497145,-1.387359,0.3955244,-0.6418636,0.0006261787,-0.01645153,-0.0007567229,1.578985,0.01648082
-0.9368483,3.565793,3.484297,-1.38758,0.3956367,-0.6417564,0.000653468,-0.01601967,-0.0007616201,1.579164,0.01605107
-0.9646018,3.573709,3.471451,-1.387798,0.3957491,-0.6416467,0.0006795521,-0.01559195,-0.0007664979,1.579339,0.01562556
-0.9923597,3.581626,3.458607,-1.388013,0.3958614,-0.6415344,0.0007045398,-0.01516865,-0.0007711046,1.579511,0.01520457
-1.020122,3.589547,3.445767,-1.388225,0.3959738,-0.6414195,0.0007320381,-0.01474928,-0.0007755015,1.579678,0.01478778
-1.047889,3.597469,3.432928,-1.388434,0.3960825,-0.6413017,0.0007797822,-0.01435352,-0.0007600996,1.579841,0.01439476
-1.075659,3.605394,3.420093,-1.38864,0.3961911,-0.6411809,0.0008260835,-0.01396171,-0.0007438373,1.580001,0.01400589
-1.103434,3.613321,3.407259,-1.388844,0.3962998,-0.6410569,0.0008701361,-0.01357382,-0.0007288131,1.580156,0.0136212
-1.131213,3.621249,3.394428,-1.389044,0.3964084,-0.6409295,0.0009155964,-0.0131897,-0.0007130481,1.580308,0.01324065
-1.158996,3.62918,3.381601,-1.389241,0.3965171,-0.6407986,0.0009636965,-0.01280961,-0.0006983368,1.580456,0.01286478
-1.186783,3.637114,3.368776,-1.389436,0.3966284,-0.640664,0.001047945,-0.01243732,-0.0006766355,1.580601,0.01249972
-1.214574,3.64505,3.355953,-1.389629,0.3967398,-0.6405253,0.001132337,-0.01206883,-0.0006556098,1.580741,0.01213955
-1.242368,3.652987,3.343134,-1.389818,0.3968511,-0.6403822,0.001215869,-0.01170403,-0.0006341667,1.580878,0.01178409
-1.270167,3.660928,3.330317,-1.390006,0.3969625,-0.6402344,0.001298678,-0.01134295,-0.0006128466,1.581011,0.01143349
-1.297969,3.66887,3.317504,-1.39019,0.3970738,-0.6400815,0.001379724,-0.01098548,-0.0005911764,1.581139,0.01108755
-1.325775,3.676815,3.304693,-1.390373,0.3971946,-0.6399232,0.001503117,-0.01062014,-0.0005716691,1.581266,0.01074121
-1.353584,3.684762,3.291886,-1.390553,0.3973154,-0.6397591,0.001624365,-0.01025842,-0.0005537603,1.581389,0.01040098
-1.381397,3.692711,3.279082,-1.390732,0.3974361,-0.6395886,0.001744371,-0.009900161,-0.0005349015,1.581507,0.01006688
-1.409214,3.700663,3.266281,-1.390908,0.3975569,-0.6394113,0.001864225,-0.009545601,-0.0005178349,1.58162,0.009739712
-1.437034,3.708618,3.253484,-1.391082,0.3976777,-0.6392268,0.001983692,-0.009194548,-0.0005005261,1.581729,0.00941941
-1.464858,3.716575,3.240691,-1.391254,0.3978132,-0.6390345,0.002190636,-0.008834845,-0.0004547925,1.581837,0.009113737
-1.492685,3.724535,3.227901,-1.391425,0.3979487,-0.6388335,0.002396489,-0.008478513,-0.0004114624,1.58194,0.008820297
-1.520516,3.732498,3.215115,-1.391594,0.3980843,-0.6386232,0.00259842,-0.008125857,-0.0003684764,1.582038,0.008539152
-1.548349,3.740463,3.202333,-1.391761,0.3982198,-0.6384028,0.002798349,-0.007776766,-0.0003258755,1.58213,0.008271338
-1.576187,3.748432,3.189555,-1.391927,0.3983554,-0.6381713,0.002995237,-0.007431165,-0.0002821489,1.582217,0.008017061
-1.604027,3.756403,3.176781,-1.392093,0.3985144,-0.6379281,0.003375595,-0.007042909,-0.0002248714,1.582305,0.007813307
-1.63187,3.764378,3.164012,-1.392257,0.3986734,-0.6376717,0.003753127,-0.006658498,-0.0001674594,1.582386,0.007645234
-1.659717,3.772356,3.151247,-1.392421,0.3988324,-0.6374006,0.004124795,-0.006278082,-0.0001088913,1.582461,0.007512663
-1.687567,3.780337,3.138487,-1.392584,0.3989914,-0.6371133,0.004493773,-0.005901319,-5.147813E-05,1.582529,0.007417696
-1.71542,3.788322,3.125732,-1.392747,0.3991504,-0.6368083,0.004860103,-0.005528323,3.941201E-06,1.58259,0.007360908
-1.743276,3.79631,3.112982,-1.392911,0.3993343,-0.6364843,0.00570555,-0.005078617,0.0001418468,1.58265,0.007639749
-1.771136,3.804302,3.100236,-1.393075,0.3995181,-0.6361378,0.006543516,-0.004633408,0.0002778847,1.582701,0.008022673
-1.798998,3.812298,3.087495,-1.39324,0.399702,-0.6357657,0.007375011,-0.004192424,0.0004114591,1.582743,0.008493322
-1.826863,3.820298,3.07476,-1.393406,0.3998857,-0.6353646,0.008196292,-0.003756115,0.0005440715,1.582775,0.009032366
-1.854732,3.828302,3.062032,-1.393575,0.4000694,-0.6349313,0.009007465,-0.003324093,0.0006761203,1.582797,0.009625028
-1.883208,3.837032,3.050662,-1.393778,0.4361724,-0.6343769,-0.4323584,0.004965593,-0.1973435,1.592262,0.4752924
-1.912269,3.846528,3.040597,-1.393064,0.4722705,-0.6358314,-0.8692999,0.01320142,-0.3934092,1.602482,0.954268
-1.941868,3.856874,3.03174,-1.390523,0.5082955,-0.6413245,-1.301858,0.02138352,-0.5875426,1.613449,1.42846
-1.971939,3.868184,3.02395,-1.385259,0.5440528,-0.6528626,-1.730077,0.02951152,-0.7797643,1.625166,1.897912
-2.002395,3.880608,3.017034,-1.376391,0.5791619,-0.6724207,-2.154001,0.03758452,-0.970091,1.637691,2.36267
-2.03146,3.892163,3.009098,-1.367346,0.539092,-0.6924468,-2.014806,-0.1519581,-0.5655596,1.624727,2.098187
-2.05914,3.90273,3.000046,-1.356471,0.4979765,-0.7187139,-1.880271,-0.3248506,-0.1573946,1.61386,1.914607
-2.08545,3.91222,2.989804,-1.34492,0.45573,-0.7507197,-1.750246,-0.4810993,0.2536997,1.606263,1.832807
-2.110414,3.920583,2.978322,-1.333814,0.4123284,-0.7879859,-1.624722,-0.6207804,0.6670603,1.603121,1.862809
-2.134068,3.927804,2.965564,-1.324247,0.3677753,-0.8300707,-1.503824,-0.7440358,1.08206,1.605585,1.99648
-2.158164,3.934039,2.950673,-1.317557,0.3162843,-0.8747893,-1.086879,-0.791204,0.9127107,1.612839,1.624916
-2.182698,3.939167,2.93359,-1.312769,0.2638928,-0.9225532,-0.6706942,-0.8338966,0.7525855,1.626071,1.308281
-2.207647,3.943111,2.914276,-1.309329,0.2109101,-0.9721737,-0.2554864,-0.8720132,0.6014982,1.644368,1.089716
-2.232978,3.945842,2.892715,-1.30674,0.1577084,-1.022473,0.1585442,-0.9055309,0.4592994,1.666701,1.027657
-2.258646,3.947371,2.868909,-1.304558,0.1046873,-1.072275,0.5712044,-0.9345002,0.3258742,1.691923,1.142698
-2.285766,3.948432,2.84428,-1.302275,0.06032999,-1.123106,0.5024095,-0.9393941,-0.1861725,1.720734,1.081451
-2.314298,3.949048,2.818809,-1.298485,0.01646422,-1.172352,0.4438303,-0.9389027,-0.6943091,1.749498,1.249235
-2.344155,3.949283,2.792474,-1.291667,-0.02704452,-1.220144,0.3953354,-0.9332078,-1.198339,1.777044,1.569453
-2.375205,3.949244,2.765255,-1.280307,-0.07039866,-1.266558,0.3568388,-0.9225839,-1.69807,1.802307,1.965181
-2.407263,3.949071,2.737134,-1.262914,-0.1139146,-1.311617,0.3282996,-0.9074016,-2.193328,1.824354,2.396215
-2.43709,3.946928,2.708048,-1.243445,-0.1911486,-1.345789,0.33636,-1.051531,-1.582534,1.842238,1.929577
-2.464656,3.942643,2.678076,-1.219512,-0.2688438,-1.378706,0.3270493,-1.198262,-0.9788333,1.860193,1.581426
-2.489943,3.936114,2.64731,-1.19249,-0.3468271,-1.410237,0.3006472,-1.347082,-0.3825582,1.87912,1.43226
-2.512933,3.927302,2.615859,-1.163733,-0.4248385,-1.440307,0.2574877,-1.497694,0.2059238,1.899801,1.533555
-2.533616,3.916236,2.583847,-1.134585,-0.5025797,-1.4689,0.1979636,-1.650004,0.7862125,1.922897,1.838433
-2.553812,3.905046,2.551054,-1.09231,-0.5203654,-1.509638,0.2206228,-1.614721,0.6260857,1.934665,1.745847
-2.573545,3.89373,2.517498,-1.050993,-0.5374527,-1.548237,0.2477158,-1.578783,0.4685169,1.946915,1.665361
-2.592825,3.882288,2.483197,-1.010173,-0.5539693,-1.58465,0.2791104,-1.542161,0.3136244,1.959196,1.598288
-2.611654,3.87072,2.448174,-0.9693932,-0.5700329,-1.618801,0.3146694,-1.504844,0.1615137,1.971085,1.545852
-2.630018,3.85903,2.412454,-0.9282035,-0.5857567,-1.650583,0.354265,-1.466835,0.01228472,1.982195,1.50906
-2.647245,3.846549,2.376071,-0.8907232,-0.6208569,-1.676688,0.4018587,-1.479063,0.1160764,1.997532,1.537073
-2.663323,3.833291,2.339093,-0.8528805,-0.6556696,-1.700382,0.4459496,-1.491894,0.2200791,2.012115,1.572595
-2.678245,3.819273,2.301593,-0.8150805,-0.6901159,-1.721507,0.486565,-1.505335,0.3241819,2.025883,1.614891
-2.692016,3.804518,2.263646,-0.7777353,-0.7241262,-1.739925,0.5237448,-1.519397,0.4282755,2.038767,1.663219
-2.704647,3.78905,2.22533,-0.7412648,-0.7576422,-1.755519,0.5575277,-1.534101,0.5322525,2.050693,1.716857
-2.716729,3.77354,2.186826,-0.7012584,-0.7681702,-1.76994,0.5647532,-1.472941,0.422877,2.052934,1.633195
-2.728293,3.757986,2.14818,-0.6624476,-0.7782204,-1.7811,0.5745622,-1.411102,0.3155356,2.053481,1.555922
-2.739362,3.742385,2.109442,-0.6245432,-0.7879188,-1.789037,0.5868682,-1.348597,0.2102908,2.0522,1.485716
-2.74995,3.726736,2.07066,-0.5872529,-0.7973847,-1.793768,0.6015835,-1.285444,0.1071972,2.048974,1.423292
-2.760066,3.711037,2.031883,-0.5502827,-0.8067334,-1.795298,0.6186267,-1.221667,0.006300149,2.043704,1.369383
-2.768994,3.694942,1.993487,-0.5137914,-0.8183722,-1.793633,0.5119385,-1.216191,0.1422595,2.037359,1.327192
-2.776766,3.678448,1.95554,-0.4778996,-0.8299394,-1.789198,0.4030634,-1.212441,0.2742999,2.029388,1.306795
-2.783423,3.661559,1.918103,-0.4431571,-0.8413579,-1.782417,0.2921227,-1.21037,0.4023887,2.020218,1.308529
-2.789018,3.644284,1.881227,-0.4100899,-0.8525488,-1.773735,0.1792446,-1.20995,0.5265097,2.010261,1.331661
-2.79361,3.62664,1.844954,-0.3792,-0.8634366,-1.763615,0.06455807,-1.211162,0.6466476,1.999913,1.374494
-2.797873,3.609411,1.809065,-0.3468991,-0.8472091,-1.750944,0.06310874,-1.11604,0.55948,1.975831,1.250018
-2.801864,3.592591,1.773559,-0.3172707,-0.8306516,-1.737314,0.06254675,-1.02177,0.4732775,1.951641,1.127793
-2.805633,3.576173,1.738436,-0.2899446,-0.8138422,-1.722835,0.06284928,-0.9283384,0.3880538,1.927321,1.008141
-2.809219,3.560152,1.703693,-0.2645484,-0.7968467,-1.707599,0.0639934,-0.8357291,0.3038108,1.902852,0.8915376
-2.812653,3.544522,1.669329,-0.2407084,-0.7797217,-1.691679,0.06596247,-0.7439299,0.2205519,1.878213,0.7787335
-2.815532,3.52899,1.635541,-0.2188917,-0.7704325,-1.675745,-0.01097854,-0.7232203,0.2659701,1.85731,0.7706544
-2.817888,3.513561,1.602334,-0.1984008,-0.7610273,-1.65955,-0.08790062,-0.7031152,0.3098243,1.836472,0.7733619
-2.81976,3.498242,1.569707,-0.1794115,-0.7514713,-1.643439,-0.1647777,-0.68361,0.3521296,1.815982,0.7864284
-2.821185,3.483043,1.537652,-0.1620893,-0.741735,-1.627759,-0.241585,-0.6647022,0.3929021,1.796118,0.8090516
-2.822207,3.467975,1.506155,-0.1465894,-0.731796,-1.612855,-0.3183006,-0.646391,0.4321634,1.777165,0.8401797
-2.823212,3.45335,1.474858,-0.1325258,-0.7135295,-1.598536,-0.2747814,-0.574766,0.3683938,1.755564,0.7359177
-2.82423,3.439162,1.443733,-0.1202018,-0.69509,-1.585244,-0.2314942,-0.5038858,0.3053668,1.735107,0.6330398
-2.825286,3.425409,1.412754,-0.1093185,-0.67652,-1.572829,-0.1884409,-0.4337405,0.243077,1.71564,0.5317211
-2.826398,3.412085,1.381903,-0.09958421,-0.6578546,-1.561134,-0.1456214,-0.364321,0.181521,1.697006,0.4323023
-2.827579,3.399189,1.351165,-0.09071326,-0.6391221,-1.549998,-0.1030342,-0.2956188,0.1206872,1.679047,0.3355174
-2.828579,3.386407,1.320721,-0.08288057,-0.632142,-1.539843,-0.1318886,-0.2888959,0.1316098,1.66661,0.3437682
-2.82941,3.37374,1.290561,-0.07564,-0.625116,-1.530181,-0.1605354,-0.2822874,0.1422413,1.654673,0.3545284
-2.830086,3.361192,1.260673,-0.06903047,-0.6180403,-1.521132,-0.1889719,-0.2757923,0.1525862,1.643344,0.3674974
-2.830621,3.348765,1.231041,-0.06308925,-0.6109125,-1.512817,-0.2171998,-0.2694096,0.162647,1.63273,0.3823759
-2.83103,3.336462,1.201648,-0.05785204,-0.6037323,-1.505355,-0.2452178,-0.263139,0.172428,1.62294,0.3988801
-2.831444,3.324345,1.172269,-0.05335311,-0.5965063,-1.498865,-0.2041698,-0.2301098,0.15152,1.614083,0.34292
-2.831872,3.312414,1.142886,-0.0494987,-0.5892428,-1.493187,-0.1635352,-0.1973722,0.1308772,1.606009,0.2877992
-2.832324,3.300665,1.113487,-0.04619803,-0.5819525,-1.48816,-0.1233111,-0.1649237,0.1104909,1.598569,0.2336957
-2.832808,3.289099,1.08406,-0.04336283,-0.5746435,-1.483625,-0.08349611,-0.1327611,0.09036053,1.591615,0.1810031
-2.833329,3.277713,1.054601,-0.04090703,-0.5673225,-1.479423,-0.04408173,-0.100882,0.07048313,1.584998,0.130722
-2.833839,3.266356,1.025225,-0.03880925,-0.5659129,-1.475513,-0.04515576,-0.09402381,0.06257028,1.580791,0.1216329
-2.834341,3.255027,0.9959266,-0.03696596,-0.5644975,-1.471777,-0.04621318,-0.08724245,0.05473036,1.576753,0.1128819
-2.83484,3.243725,0.9667032,-0.03534535,-0.5630767,-1.468221,-0.04725338,-0.08053742,0.04696058,1.572888,0.1045201
-2.835339,3.232452,0.9375509,-0.03391592,-0.5616513,-1.464849,-0.04827666,-0.07390762,0.03926161,1.569199,0.09661493
-2.835841,3.221207,0.9084657,-0.03264652,-0.5602216,-1.461667,-0.04928387,-0.06735206,0.03163355,1.565689,0.08925179
-2.836308,3.209961,0.8794376,-0.0315151,-0.5603116,-1.4587,-0.04845591,-0.06354778,0.03689739,1.562929,0.08802109
-2.836743,3.198714,0.8504629,-0.03053205,-0.560398,-1.455922,-0.04764594,-0.05977602,0.04210787,1.560349,0.08727188
-2.837149,3.187466,0.8215379,-0.02971738,-0.5604811,-1.45333,-0.04685314,-0.05603617,0.04726072,1.557945,0.08699911
-2.837531,3.176218,0.792659,-0.02909088,-0.5605611,-1.450921,-0.04607753,-0.05232828,0.05236025,1.555714,0.08719509
-2.837891,3.164969,0.7638227,-0.02867218,-0.5606385,-1.448692,-0.04531853,-0.04865208,0.05740555,1.553656,0.08784185
-2.838291,3.153734,0.734992,-0.02848047,-0.5604398,-1.446638,-0.03357722,-0.03806774,0.0458906,1.551665,0.06842902
-2.838734,3.142512,0.7061645,-0.02847054,-0.5602396,-1.444715,-0.02195487,-0.02758656,0.03449259,1.549801,0.04932315
-2.839222,3.131304,0.6773388,-0.02859713,-0.5600387,-1.442879,-0.01044915,-0.01720741,0.02321136,1.548019,0.03072535
-2.839756,3.120107,0.6485143,-0.02881552,-0.5598374,-1.441084,0.0009405343,-0.006928831,0.01204259,1.546277,0.01392542
-2.840338,3.108924,0.6196916,-0.02908146,-0.5596362,-1.439286,0.01221569,0.003249942,0.0009866026,1.544533,0.01267906
-2.840905,3.0977,0.5909369,-0.02934857,-0.5613174,-1.437456,0.001822289,-6.116956E-05,0.006365074,1.543444,0.006621076
-2.84146,3.086433,0.5622503,-0.02964045,-0.5629987,-1.43562,-0.008466424,-0.003340945,0.01168772,1.542353,0.01481368
-2.842003,3.075125,0.5336305,-0.02997792,-0.5646797,-1.433817,-0.0186529,-0.006589244,0.01695806,1.541296,0.02605619
-2.842535,3.063775,0.5050762,-0.0303816,-0.5663603,-1.432087,-0.02873631,-0.009806495,0.02217635,1.540311,0.03759965
-2.84306,3.052384,0.4765845,-0.03087188,-0.56804,-1.430468,-0.03871872,-0.01299331,0.02733968,1.539435,0.04914696
-2.843612,3.040987,0.448096,-0.03147217,-0.5686614,-1.428992,-0.0300504,-0.006588074,0.02361051,1.538306,0.03877996
-2.844195,3.029585,0.4196085,-0.03216499,-0.5692822,-1.427634,-0.02147168,-0.0002450005,0.01991954,1.537288,0.02928961
-2.844809,3.018178,0.3911205,-0.03293575,-0.5699028,-1.426359,-0.0129811,0.006036455,0.01626193,1.536351,0.0216656
-2.845456,3.006764,0.3626314,-0.03376996,-0.5705233,-1.425136,-0.004577832,0.01225695,0.01263826,1.535464,0.01819107
-2.846136,2.995344,0.3341411,-0.03465331,-0.5711439,-1.42393,0.003738934,0.01841697,0.009048892,1.534595,0.02085778
-2.846839,2.983893,0.3056821,-0.0355677,-0.5725954,-1.422714,0.001414221,0.01879641,0.007417365,1.534029,0.02025642
-2.847567,2.972412,0.2772545,-0.03651053,-0.5740471,-1.421493,-0.0008884558,0.01917176,0.005804954,1.533462,0.02005102
-2.848319,2.960899,0.2488581,-0.03747551,-0.5754989,-1.420274,-0.003168409,0.01954298,0.004205705,1.5329,0.02023993
-2.849096,2.949356,0.2204928,-0.03845639,-0.5769507,-1.419068,-0.00542633,0.01991025,0.002627083,1.532353,0.020803
-2.849898,2.937782,0.192158,-0.03944702,-0.5784025,-1.417882,-0.007661944,0.02027356,0.001061493,1.531827,0.02169906
-2.850713,2.926178,0.1638486,-0.04044121,-0.5798756,-1.416726,-0.00845826,0.02048016,0.003291313,1.53134,0.02240116
-2.851541,2.914544,0.1355642,-0.04144775,-0.5813487,-1.415602,-0.009245193,0.02068504,0.005500861,1.530887,0.02331531
-2.852384,2.90288,0.1073039,-0.04247525,-0.5828217,-1.414514,-0.01002411,0.02088791,0.007688594,1.530469,0.0244111
-2.853241,2.891186,0.07906684,-0.04353225,-0.5842946,-1.413465,-0.0107938,0.02108912,0.009853706,1.530091,0.02565839
-2.854114,2.879462,0.05085229,-0.04462719,-0.5857674,-1.412457,-0.01155536,0.02128882,0.0119967,1.529755,0.02703074
-2.855022,2.867717,0.02264613,-0.04577035,-0.5869125,-1.411492,-0.007988933,0.02422089,0.008561641,1.529337,0.02690309
-2.855966,2.855953,-0.005552109,-0.04694646,-0.5880576,-1.410557,-0.004460837,0.02712372,0.005159569,1.52895,0.02796813
-2.856947,2.844168,-0.03374266,-0.04814219,-0.5892028,-1.40964,-0.0009697738,0.02999748,0.001789312,1.528582,0.03006644
-2.857964,2.832363,-0.06192546,-0.04934435,-0.5903479,-1.408725,0.002484167,0.0328428,-0.001547506,1.528219,0.03297295
-2.859018,2.820538,-0.09010017,-0.05053987,-0.5914931,-1.4078,0.005901559,0.03565945,-0.004855825,1.527848,0.03646922
-2.860088,2.808677,-0.1182456,-0.05171287,-0.5931205,-1.406854,0.002496551,0.03430082,-0.003044378,1.527646,0.03452604
-2.861175,2.796781,-0.1463615,-0.05287337,-0.5947478,-1.405897,-0.000873466,0.03295567,-0.001248752,1.527438,0.03299088
-2.862278,2.78485,-0.1744482,-0.05402838,-0.596375,-1.404942,-0.004208968,0.03162408,0.0005313692,1.527234,0.03190737
-2.863399,2.772885,-0.2025061,-0.05518487,-0.5980023,-1.404004,-0.007509893,0.03030618,0.002295784,1.527049,0.03130709
-2.864536,2.760884,-0.2305358,-0.05634972,-0.5996295,-1.403093,-0.01077648,0.02900136,0.004043692,1.526893,0.03120196
-2.865702,2.74886,-0.2585557,-0.05753231,-0.6008422,-1.402222,-0.008295122,0.0307415,0.003015791,1.526614,0.0319835
-2.866895,2.736815,-0.2865662,-0.05872613,-0.6020548,-1.401383,-0.00583924,0.0324644,0.0019928,1.526366,0.0330455
-2.868117,2.724747,-0.3145678,-0.05992719,-0.6032674,-1.400566,-0.003408261,0.03416988,0.0009809334,1.526142,0.03435344
-2.869368,2.712656,-0.3425606,-0.06113151,-0.60448,-1.399761,-0.00100263,0.03585811,-2.248101E-05,1.525931,0.03587214
-2.870647,2.700544,-0.3705447,-0.06233518,-0.6056926,-1.39896,0.00137811,0.03752973,-0.001019447,1.525725,0.03756886
-2.871952,2.688402,-0.3985102,-0.0635331,-0.6070928,-1.398152,0.0006013657,0.03751502,-0.001490041,1.525591,0.03754941
-2.873281,2.676232,-0.4264571,-0.06472462,-0.608493,-1.397342,-0.0001678784,0.03750046,-0.001957088,1.525457,0.03755186
-2.874636,2.664033,-0.4543855,-0.06590791,-0.6098932,-1.396531,-0.000929747,0.03748611,-0.002418127,1.525324,0.03757553
-2.876015,2.651806,-0.4822954,-0.06708117,-0.6112933,-1.395723,-0.001684855,0.03747191,-0.002872261,1.525196,0.03761958
-2.877419,2.639551,-0.5101869,-0.06824263,-0.6126933,-1.394921,-0.002432725,0.03745789,-0.0033212,1.525075,0.03768345
-2.878844,2.627267,-0.5380615,-0.06939068,-0.6140719,-1.394127,-0.002796437,0.03734789,-0.002523924,1.524956,0.03753739
-2.880289,2.614955,-0.5659192,-0.07052831,-0.6154504,-1.393344,-0.003155624,0.03723889,-0.001734242,1.524848,0.03741257
-2.881754,2.602616,-0.5937604,-0.0716586,-0.6168289,-1.392572,-0.003510438,0.03713097,-0.0009531048,1.524752,0.03730872
-2.883239,2.590249,-0.6215854,-0.07278461,-0.6182072,-1.391812,-0.003861428,0.0370244,-0.0001786157,1.52467,0.03722565
-2.884744,2.577854,-0.6493943,-0.07390936,-0.6195855,-1.391067,-0.004209095,0.03691893,0.0005882989,1.524604,0.03716275
-2.886276,2.565435,-0.677192,-0.07503658,-0.6208416,-1.390337,-0.003107891,0.03771576,-0.0004296353,1.524504,0.03784603
-2.887833,2.552991,-0.7049786,-0.07616156,-0.6220976,-1.389618,-0.002018834,0.03850476,-0.001441236,1.524416,0.03858458
-2.889417,2.540523,-0.7327542,-0.07728038,-0.6233535,-1.388906,-0.0009400186,0.03928584,-0.002440982,1.524337,0.03937282
-2.891026,2.528031,-0.7605188,-0.07838912,-0.6246094,-1.388197,0.0001265014,0.0400588,-0.003433336,1.524262,0.04020586
-2.892661,2.515515,-0.7882724,-0.07948391,-0.6258652,-1.387487,0.001181905,0.040824,-0.004415664,1.524187,0.04107912
-2.894315,2.50297,-0.8160084,-0.08056004,-0.6272773,-1.386772,0.0001278659,0.04028079,-0.003756645,1.524173,0.04045578
-2.895988,2.490395,-0.843727,-0.08162095,-0.6286893,-1.386055,-0.0009153355,0.03974308,-0.003103651,1.524159,0.03987459
-2.897679,2.477791,-0.8714281,-0.08266921,-0.6301013,-1.385341,-0.001947808,0.03921098,-0.002455272,1.52415,0.03933603
-2.899389,2.465159,-0.8991119,-0.08370734,-0.6315131,-1.384634,-0.002968366,0.03868397,-0.001815414,1.524148,0.03884014
-2.901117,2.452497,-0.9267786,-0.08473786,-0.6329249,-1.383938,-0.003979341,0.03816227,-0.001181149,1.524158,0.03838736
-2.902866,2.43981,-0.954434,-0.08576381,-0.6342291,-1.383256,-0.003227544,0.03858109,-0.001397283,1.524138,0.03874106
-2.904637,2.427098,-0.9820783,-0.0867838,-0.6355331,-1.382585,-0.002483153,0.03899576,-0.001613433,1.524131,0.03910803
-2.906429,2.414359,-1.009712,-0.08779698,-0.6368371,-1.381924,-0.001746223,0.03940639,-0.001826134,1.524134,0.03948731
-2.908242,2.401596,-1.037334,-0.08880252,-0.638141,-1.381269,-0.00101714,0.03981265,-0.00203915,1.524143,0.03987782
-2.910076,2.388807,-1.064945,-0.0897996,-0.6394449,-1.380617,-0.0002956359,0.04021482,-0.002248061,1.524157,0.04027869
-2.91193,2.375989,-1.092543,-0.0907869,-0.6408441,-1.379965,-0.0005200146,0.04012937,-0.002264828,1.524214,0.0401966
-2.913803,2.363144,-1.120127,-0.09176486,-0.6422433,-1.379315,-0.0007424977,0.04004463,-0.002280327,1.524272,0.04011638
-2.915696,2.35027,-1.147697,-0.09273341,-0.6436424,-1.378667,-0.0009641586,0.03996092,-0.002297337,1.524335,0.04003852
-2.917608,2.337368,-1.175254,-0.0936925,-0.6450414,-1.378021,-0.001181811,0.03987802,-0.002312992,1.524402,0.03996252
-2.919538,2.324439,-1.202797,-0.09464206,-0.6464404,-1.37738,-0.001399535,0.03979601,-0.002327491,1.524473,0.03988858
-2.921487,2.311479,-1.230327,-0.09558176,-0.6478984,-1.376744,-0.001513181,0.03971189,-0.001897059,1.524576,0.03978596
-2.923452,2.298491,-1.257844,-0.09651356,-0.6493564,-1.376112,-0.00162426,0.03962849,-0.001472754,1.524685,0.03968909
-2.925435,2.285474,-1.285348,-0.09743913,-0.6508144,-1.375487,-0.001733449,0.03954592,-0.00105056,1.524801,0.03959784
-2.927434,2.272427,-1.31284,-0.09836012,-0.6522723,-1.374867,-0.001842792,0.03946441,-0.0006316936,1.524924,0.03951246
-2.929451,2.25935,-1.340319,-0.09927816,-0.6537302,-1.374254,-0.001949669,0.03938382,-0.0002187508,1.525055,0.03943266
-2.931487,2.246244,-1.367787,-0.1001946,-0.6552512,-1.373648,-0.001599864,0.03966199,-0.0002817843,1.525222,0.03969524
-2.933541,2.233108,-1.395243,-0.1011094,-0.6567722,-1.373047,-0.001253742,0.03993752,-0.0003419098,1.525395,0.03995866
-2.935614,2.219941,-1.422689,-0.1020224,-0.6582932,-1.37245,-0.0009114314,0.04021018,-0.0004051326,1.525575,0.04022255
-2.937705,2.206744,-1.450124,-0.1029334,-0.6598141,-1.371857,-0.0005715804,0.04047989,-0.0004645805,1.525759,0.04048659
-2.939815,2.193518,-1.477548,-0.1038421,-0.6613351,-1.371264,-0.0002373124,0.04074702,-0.0005262874,1.525947,0.04075111
-2.941941,2.180256,-1.50496,-0.1047472,-0.6630684,-1.370673,-0.0005344719,0.04074628,0.0001257333,1.526229,0.04074998
-2.944084,2.166959,-1.532358,-0.1056524,-0.6648017,-1.370083,-0.0008290918,0.04074548,0.0007715171,1.526516,0.04076121
-2.946242,2.153627,-1.559744,-0.1065601,-0.666535,-1.369496,-0.001119776,0.04074457,0.001413823,1.526808,0.04078447
-2.948417,2.140261,-1.587118,-0.1074728,-0.6682683,-1.368912,-0.001407065,0.04074359,0.002047169,1.527106,0.04081925
-2.950608,2.12686,-1.614478,-0.108393,-0.6700016,-1.368332,-0.001692035,0.04074259,0.002675407,1.527411,0.04086538
-2.952816,2.113419,-1.641829,-0.109322,-0.6719802,-1.36776,-0.001395373,0.04130464,0.003511146,1.527834,0.04147709
-2.955041,2.099939,-1.669169,-0.1102641,-0.6739588,-1.367192,-0.001100022,0.04186123,0.004337402,1.528264,0.04209971
-2.957283,2.086419,-1.696498,-0.1112226,-0.6759375,-1.366627,-0.0008073463,0.04241213,0.005154097,1.528703,0.04273178
-2.959542,2.07286,-1.723817,-0.1122007,-0.6779163,-1.366065,-0.0005165844,0.04295764,0.005961496,1.529148,0.0433724
-2.961819,2.059262,-1.751126,-0.1132014,-0.6798952,-1.365504,-0.0002286054,0.04349769,0.006763381,1.529599,0.04402096
-2.96411,2.045613,-1.778424,-0.1142249,-0.6824487,-1.364945,-7.017141E-05,0.04449293,0.009240867,1.530313,0.04544249
-2.966415,2.031913,-1.805711,-0.1152836,-0.6850025,-1.364385,8.969685E-05,0.04547822,0.01169234,1.531034,0.0469573
-2.968736,2.018162,-1.832988,-0.1163871,-0.6875566,-1.363823,0.0002495068,0.04645369,0.01411856,1.531762,0.04855246
-2.971073,2.004359,-1.860254,-0.1175448,-0.6901109,-1.36326,0.0004091683,0.0474196,0.01652047,1.532497,0.05021665
-2.973429,1.990506,-1.887509,-0.118766,-0.6926657,-1.362694,0.0005685428,0.04837577,0.01889984,1.53324,0.0519398
-2.977763,1.97753,-1.91466,-0.1203701,-0.6487762,-1.361988,-0.02847715,0.06284799,-0.6183972,1.51341,0.6222346
-2.983997,1.965503,-1.941705,-0.1190039,-0.6048849,-1.361418,-0.05784611,0.0771757,-1.24929,1.494492,1.253008
-2.991984,1.954567,-1.968645,-0.1116392,-0.5611022,-1.361133,-0.08753116,0.09137154,-1.873846,1.476476,1.878113
-3.001506,1.944925,-1.995481,-0.0952879,-0.5177637,-1.36129,-0.1175247,0.1054561,-2.492125,1.459544,2.497123
-3.012257,1.936832,-2.02222,-0.06702362,-0.4755385,-1.362055,-0.1478118,0.1194558,-3.104192,1.444238,3.110005
-3.020277,1.928246,-2.048476,-0.03538224,-0.4979244,-1.363197,-0.4076044,-0.3095606,-2.534641,1.451719,2.585803
-3.025477,1.91886,-2.074315,0.005036302,-0.5221513,-1.365526,-0.6893666,-0.7160191,-1.969068,1.461961,2.205706
-3.02782,1.908455,-2.099756,0.05223938,-0.5481479,-1.369587,-0.9918135,-1.099233,-1.407895,1.476131,2.04308
-3.027306,1.896898,-2.124772,0.1043288,-0.5756457,-1.375917,-1.313863,-1.458837,-0.851837,1.495126,2.140109
-3.02397,1.884144,-2.149296,0.1595097,-0.6042613,-1.385102,-1.654642,-1.794765,-0.3018712,1.519567,2.459704
-3.018389,1.870812,-2.175672,0.2163426,-0.6328421,-1.397872,-1.146143,-1.949415,0.07686377,1.549625,2.262691
-3.010445,1.856823,-2.203821,0.2734475,-0.6616467,-1.41226,-0.657565,-2.0929,0.4745559,1.58336,2.24451
-3.000039,1.84219,-2.233616,0.3295605,-0.6901021,-1.426483,-0.1895075,-2.225111,0.889996,1.61855,2.403981
-2.987099,1.827014,-2.264881,0.3832718,-0.7176304,-1.438899,0.2573459,-2.346298,1.322017,1.652974,2.705378
-2.971586,1.811483,-2.297395,0.4330088,-0.7437353,-1.448016,0.682242,-2.457058,1.769475,1.684455,3.103809
-2.955697,1.79656,-2.331268,0.4810093,-0.7525429,-1.452899,1.218485,-2.37725,1.523144,1.705464,3.075059
-2.93945,1.782323,-2.366388,0.52335,-0.759937,-1.451049,1.757565,-2.276329,1.306911,1.719576,3.158912
-2.922859,1.768894,-2.402575,0.5604663,-0.7665062,-1.440736,2.297472,-2.155353,1.121173,1.725507,3.343793
-2.905942,1.756438,-2.439573,0.5926631,-0.7730068,-1.42021,2.836373,-2.015764,0.9663963,1.722146,3.611404
-2.888732,1.745147,-2.477039,0.6201321,-0.7804343,-1.387742,3.372613,-1.859382,0.8431,1.708645,3.942415
-2.870288,1.733205,-2.511034,0.642804,-0.7914766,-1.342016,2.622806,-1.966424,0.9799973,1.68542,3.421451
-2.850868,1.720266,-2.541453,0.6598634,-0.8048029,-1.285852,1.878141,-2.093158,1.080166,1.65425,3.012555
-2.830742,1.706096,-2.568229,0.6704848,-0.8200797,-1.222274,1.140443,-2.237613,1.143383,1.617416,2.759501
-2.810194,1.690572,-2.591321,0.6740381,-0.8366954,-1.154266,0.4115985,-2.398326,1.169842,1.576932,2.699984
-2.789532,1.673673,-2.610704,0.6700972,-0.8538817,-1.084791,-0.3064289,-2.574345,1.160124,1.534573,2.840253
-2.771104,1.657916,-2.627234,0.6518473,-0.7689826,-0.9781938,-0.5678449,-2.174385,0.7390055,1.404672,2.365698
-2.755071,1.643254,-2.641183,0.6248901,-0.6832306,-0.875778,-0.8139653,-1.78698,0.3066698,1.274472,1.987432
-2.741526,1.629698,-2.652794,0.5926393,-0.5960386,-0.7790226,-1.04439,-1.411991,-0.1359928,1.146019,1.761523
-2.730493,1.617323,-2.662287,0.5585267,-0.5068071,-0.6891458,-1.258941,-1.049449,-0.5881478,1.02163,1.741319
-2.72194,1.60626,-2.669855,0.5259835,-0.41502,-0.6071883,-1.45764,-0.699554,-1.049016,0.9042001,1.92731
-2.714675,1.596941,-2.675629,0.4985964,-0.3221148,-0.5345356,-1.607268,-0.5425737,-1.202404,0.798802,2.079297
-2.708575,1.589501,-2.679791,0.4774597,-0.2264446,-0.4714854,-1.749998,-0.388653,-1.360808,0.7081973,2.250632
-2.70349,1.584077,-2.682535,0.4638522,-0.1282764,-0.4188311,-1.885929,-0.2381,-1.524006,0.6379915,2.436394
-2.699236,1.580809,-2.684068,0.459026,-0.02805184,-0.3773649,-2.015205,-0.09124333,-1.691781,0.5948916,2.632775
-2.695601,1.579831,-2.684614,0.4641912,0.07359721,-0.347877,-2.138005,0.05157147,-1.863918,0.5847293,2.836885
-2.691543,1.580815,-2.685703,0.4784185,0.1377847,-0.3332845,-1.846203,0.1646731,-1.772175,0.5991222,2.564408
-2.68684,1.58363,-2.687551,0.5019035,0.2016641,-0.3283652,-1.553185,0.2695918,-1.686314,0.6327711,2.308402
-2.681295,1.588152,-2.690331,0.5341506,0.2646286,-0.3316624,-1.259267,0.3661793,-1.606,0.6821621,2.073422
-2.674732,1.594262,-2.694182,0.5746528,0.3262563,-0.3417372,-0.9647692,0.4543432,-1.530946,0.7439444,1.865745
-2.666995,1.601858,-2.699208,0.6229098,0.3862787,-0.3571754,-0.6700075,0.5340416,-1.46092,0.815354,1.693635
-2.657292,1.609496,-2.705239,0.6644186,0.3802892,-0.3716871,-0.429069,0.4751838,-1.107676,0.8510131,1.279393
-2.645566,1.617062,-2.712335,0.7099816,0.3732018,-0.3882402,-0.1885409,0.4146014,-0.7597314,0.8911139,0.8857955
-2.631786,1.624479,-2.720531,0.7582705,0.3653368,-0.4058942,0.05149853,0.3522884,-0.4170196,0.9344492,0.5483289
-2.615947,1.631715,-2.729839,0.8080037,0.3570814,-0.4236997,0.2909977,0.2882603,-0.07948142,0.9797441,0.4172421
-2.598063,1.638777,-2.740247,0.8579352,0.348848,-0.4406986,0.5299223,0.222554,0.2529374,1.025653,0.6279532
-2.578895,1.645168,-2.751498,0.8994986,0.3127449,-0.4536367,0.7114585,0.1488884,0.3941497,1.054843,0.8268585
-2.558473,1.65093,-2.763543,0.9397626,0.277133,-0.4644151,0.8921729,0.07540175,0.5323728,1.084268,1.041671
-2.536838,1.656121,-2.776315,0.9782994,0.2421079,-0.4723822,1.072063,0.002132032,0.6676405,1.113028,1.26296
-2.514035,1.660806,-2.78973,1.01468,0.2077168,-0.476888,1.251128,-0.07087414,0.7999867,1.140238,1.486716
-2.49012,1.665059,-2.803686,1.048469,0.1739484,-0.4772872,1.429378,-0.1435651,0.9294467,1.165053,1.711024
-2.465656,1.668645,-2.816801,1.079089,0.1399852,-0.4729616,1.192604,-0.2546962,0.8856097,1.186474,1.507142
-2.440697,1.671516,-2.829001,1.106799,0.1063875,-0.4646131,0.9604044,-0.3677679,0.838365,1.205068,1.326833
-2.415296,1.673633,-2.840231,1.131707,0.07303871,-0.4529453,0.7327846,-0.4826083,0.7877296,1.22117,1.179153
-2.389512,1.674966,-2.850448,1.153923,0.03987098,-0.4386618,0.5097587,-0.59907,0.7337517,1.235132,1.0757
-2.363402,1.675493,-2.85962,1.173562,0.006854996,-0.4224646,0.2913381,-0.7170256,0.6764924,1.247306,1.027933
-2.337103,1.675993,-2.867998,1.194469,0.009310395,-0.4012867,0.1801216,-0.7068871,0.6022939,1.260109,0.9459868
-2.310673,1.676457,-2.875575,1.212675,0.01192328,-0.3791164,0.07094973,-0.6979028,0.5273204,1.270611,0.8775927
-2.284165,1.67688,-2.882351,1.22847,0.01468362,-0.3564265,-0.03617043,-0.6900369,0.4516047,1.279216,0.8254732
-2.257626,1.67726,-2.888335,1.242154,0.01759353,-0.3336772,-0.1412393,-0.6832575,0.375183,1.286312,0.7921816
-2.231097,1.677598,-2.893544,1.254035,0.0206631,-0.3113159,-0.2442606,-0.6775392,0.2980963,1.292265,0.7794767
-2.204593,1.67833,-2.898202,1.265387,0.04226628,-0.2877948,-0.2681644,-0.6541799,0.224486,1.29839,0.7417935
-2.17814,1.679456,-2.902339,1.27546,0.06404097,-0.2653022,-0.2909765,-0.6315507,0.1511838,1.304333,0.7116039
-2.151755,1.680978,-2.905982,1.284597,0.08597226,-0.2439573,-0.3127094,-0.6096383,0.0782074,1.31038,0.6896104
-2.125448,1.6829,-2.909164,1.293139,0.108047,-0.2238693,-0.3333731,-0.5884314,0.005568981,1.316815,0.6763285
-2.099222,1.685224,-2.911917,1.301429,0.130252,-0.205138,-0.3529831,-0.5679192,-0.06671824,1.323921,0.6719975
-2.072838,1.687962,-2.914292,1.309737,0.1507633,-0.1879976,-0.3645856,-0.5604429,-0.06232572,1.331722,0.6714934
-2.046295,1.691117,-2.916318,1.318131,0.1713838,-0.1723441,-0.3761101,-0.5529962,-0.05815978,1.340352,0.6713018
-2.019591,1.694693,-2.918028,1.326613,0.1921064,-0.1582287,-0.3875537,-0.5455801,-0.05422009,1.349756,0.6714129
-1.992725,1.698691,-2.919452,1.335184,0.2129231,-0.145702,-0.3989186,-0.5381961,-0.05050082,1.359883,0.6718194
-1.965695,1.703114,-2.920624,1.343849,0.2338244,-0.1348144,-0.4101989,-0.5308464,-0.04699711,1.370685,0.67251
-1.938404,1.707959,-2.92185,1.352472,0.2513463,-0.1257619,-0.3369473,-0.5011576,-0.007769769,1.381366,0.6039477
-1.910849,1.713221,-2.923154,1.361044,0.2689235,-0.1180638,-0.2648146,-0.4715136,0.03159137,1.392372,0.5417101
-1.883029,1.718896,-2.924553,1.369413,0.2865439,-0.1114181,-0.1937938,-0.4419132,0.07107475,1.403501,0.4877448
-1.854949,1.724982,-2.92606,1.377423,0.3042003,-0.1055288,-0.1238727,-0.4123569,0.1106701,1.414556,0.4445565
-1.826615,1.731478,-2.92768,1.384913,0.3218878,-0.1001055,-0.05503998,-0.3828455,0.150365,1.425348,0.4149815
-1.798177,1.738117,-2.929148,1.391395,0.3294179,-0.09511255,-0.06856539,-0.393246,0.141667,1.433019,0.4235719
-1.769647,1.744897,-2.93047,1.397262,0.3369723,-0.09035042,-0.08185928,-0.4035921,0.1329651,1.440157,0.4327438
-1.741037,1.751821,-2.931651,1.402549,0.3445491,-0.08587687,-0.09492102,-0.4138839,0.1242617,1.4468,0.4424374
-1.71236,1.758889,-2.932701,1.407294,0.3521464,-0.08174867,-0.1077572,-0.4241211,0.1155576,1.452985,0.4525969
-1.683625,1.7661,-2.933627,1.411534,0.3597627,-0.0780216,-0.120367,-0.4343042,0.1068557,1.458748,0.4631701
-1.65481,1.773511,-2.934519,1.415343,0.3692183,-0.07472115,-0.1099577,-0.4262503,0.1111713,1.464616,0.4540254
-1.625923,1.781119,-2.935386,1.418668,0.3786888,-0.07184258,-0.0997069,-0.4182447,0.1155132,1.470097,0.4452116
-1.596974,1.788927,-2.936234,1.421495,0.3881716,-0.06934843,-0.08961419,-0.410287,0.1198811,1.475173,0.4367352
-1.567972,1.796933,-2.937071,1.42381,0.3976648,-0.06720184,-0.0796772,-0.4023773,0.1242734,1.479827,0.4286022
-1.538929,1.805137,-2.937901,1.425597,0.4071662,-0.06536653,-0.06989142,-0.3945152,0.1286885,1.484043,0.4208181
-1.509907,1.813519,-2.938705,1.426841,0.4163846,-0.06380899,-0.0683744,-0.3904893,0.1150341,1.487724,0.412783
-1.480916,1.822079,-2.939486,1.4276,0.4256071,-0.06252455,-0.06677511,-0.3865187,0.1015221,1.491004,0.4051695
-1.451964,1.830816,-2.940252,1.427933,0.4348323,-0.06151023,-0.06509731,-0.3826024,0.08815425,1.49394,0.3979867
-1.423058,1.83973,-2.941009,1.427898,0.4440589,-0.06076222,-0.06334088,-0.3787393,0.0749265,1.496587,0.391241
-1.394204,1.84882,-2.941761,1.42755,0.453286,-0.0602759,-0.0615075,-0.3749289,0.0618409,1.499,0.3849404
-1.365397,1.858097,-2.9425,1.426944,0.4629606,-0.06004537,-0.06501415,-0.3693023,0.05159085,1.501368,0.3785138
-1.336643,1.867559,-2.943232,1.426125,0.4726346,-0.06008779,-0.06841414,-0.3637487,0.04141248,1.503604,0.372436
-1.307945,1.877208,-2.943962,1.425136,0.4823076,-0.06041849,-0.0717145,-0.3582673,0.03130255,1.50575,0.3667128
-1.279304,1.887043,-2.944699,1.424022,0.4919791,-0.06105199,-0.0749113,-0.352857,0.02126259,1.50785,0.3613473
-1.250722,1.897063,-2.945447,1.422827,0.501649,-0.06200209,-0.07800829,-0.3475172,0.01129311,1.509944,0.356344
-1.222179,1.907289,-2.946262,1.421589,0.5117998,-0.06328483,-0.06755274,-0.3343729,0.008880084,1.512237,0.341244
-1.193675,1.917719,-2.947149,1.420325,0.5219483,-0.06485473,-0.05718841,-0.3213616,0.006542365,1.514582,0.326476
-1.165208,1.928353,-2.948112,1.419044,0.5320948,-0.06666882,-0.04691364,-0.3084815,0.004278346,1.516989,0.3120578
-1.136779,1.939191,-2.949156,1.417758,0.5422394,-0.06868444,-0.03672693,-0.2957316,0.002090162,1.519466,0.2980108
-1.108386,1.950232,-2.950282,1.416475,0.5523824,-0.07085922,-0.02663324,-0.2831104,-2.647919E-05,1.522021,0.2843604
-1.080044,1.961438,-2.951462,1.415215,0.5608371,-0.0731324,-0.02564503,-0.2761417,-0.007085721,1.524047,0.2774205
-1.05175,1.972808,-2.952698,1.413998,0.5692909,-0.07551739,-0.02462529,-0.2692463,-0.01407184,1.526166,0.270736
-1.023502,1.984343,-2.953991,1.41285,0.5777438,-0.07800954,-0.02357857,-0.2624238,-0.02098709,1.528404,0.2643155
-0.9952996,1.996042,-2.955346,1.411803,0.5861959,-0.08060396,-0.02250452,-0.2556733,-0.02782973,1.530787,0.2581662
-0.9671384,2.007905,-2.956762,1.410882,0.5946474,-0.08329552,-0.02139981,-0.2489937,-0.03460219,1.53334,0.2522957
-0.9389924,2.019923,-2.958259,1.41012,0.6023087,-0.08606812,-0.01542472,-0.2389729,-0.03353507,1.535781,0.2418069
-0.9108582,2.032097,-2.959839,1.409508,0.6099696,-0.08890691,-0.009509947,-0.229056,-0.03245344,1.538402,0.2315391
-0.8827326,2.044425,-2.961502,1.409042,0.6176303,-0.09178694,-0.003651806,-0.2192419,-0.03135832,1.541198,0.2215032
-0.8546126,2.056909,-2.963248,1.408716,0.625291,-0.0946836,0.002146098,-0.2095294,-0.03024923,1.544161,0.2117125
-0.8264952,2.069549,-2.965076,1.408525,0.632952,-0.09757258,0.007888146,-0.1999176,-0.02912732,1.547285,0.2021823
-0.798383,2.082309,-2.96698,1.408465,0.6390046,-0.1004074,0.01210578,-0.1931995,-0.02982679,1.549898,0.1958628
-0.7702728,2.095191,-2.968956,1.408537,0.6450579,-0.1031931,0.01628784,-0.1865511,-0.03050238,1.552651,0.1897287
-0.7421619,2.108193,-2.971005,1.408742,0.651112,-0.1059125,0.02043552,-0.1799711,-0.03115318,1.555544,0.1837872
-0.7140475,2.121318,-2.973124,1.409083,0.657167,-0.1085483,0.02454711,-0.1734596,-0.03177963,1.558578,0.178047
-0.6859266,2.134563,-2.975311,1.409562,0.663223,-0.1110833,0.02862573,-0.1670154,-0.03238247,1.561752,0.1725172
-0.6577927,2.147902,-2.977552,1.410175,0.6678693,-0.1134838,0.02961147,-0.1626948,-0.03187814,1.564456,0.1684121
-0.6296431,2.161335,-2.979845,1.410924,0.6725166,-0.1157632,0.03058838,-0.1584185,-0.03137319,1.567286,0.1643665
-0.6014751,2.174861,-2.982188,1.411806,0.6771648,-0.1179171,0.03155753,-0.1541858,-0.03086777,1.57024,0.1603806
-0.5732861,2.188481,-2.984577,1.412819,0.6818137,-0.1199413,0.03251811,-0.1499964,-0.03036123,1.573313,0.1564549
-0.5450735,2.202194,-2.98701,1.413959,0.6864632,-0.1218317,0.03346999,-0.1458497,-0.02985513,1.576501,0.15259
-0.5168282,2.215983,-2.98949,1.415219,0.6901055,-0.1235753,0.036167,-0.1417971,-0.0271987,1.579354,0.148843
-0.4885481,2.229847,-2.992012,1.416592,0.6937482,-0.1251706,0.03883168,-0.1377883,-0.02455893,1.582304,0.1452469
-0.4602311,2.243786,-2.994574,1.418067,0.6973915,-0.1266068,0.04146535,-0.133823,-0.0219345,1.585338,0.1418066
-0.4318754,2.2578,-2.997173,1.419633,0.7010351,-0.1278732,0.04406669,-0.1299007,-0.01932597,1.588446,0.1385264
-0.4034794,2.271889,-2.999804,1.42128,0.7046793,-0.1289593,0.04663483,-0.1260207,-0.01673348,1.591615,0.1354106
-0.3750477,2.286029,-3.002451,1.422986,0.7071718,-0.1298496,0.04595408,-0.1250929,-0.01619647,1.594315,0.1342473
-0.3465789,2.300219,-3.005111,1.424758,0.7096645,-0.130553,0.04527906,-0.1241744,-0.01566584,1.597061,0.1330973
-0.3180719,2.314459,-3.00778,1.426595,0.7121572,-0.1310719,0.04460878,-0.1232654,-0.01514096,1.59985,0.1319604
-0.2895253,2.328749,-3.010454,1.428492,0.7146498,-0.1314089,0.04394633,-0.1223657,-0.01462234,1.60268,0.1308375
-0.2609381,2.343089,-3.013131,1.430448,0.717142,-0.1315666,0.04328849,-0.1214753,-0.01410965,1.605548,0.1297275
-0.2323043,2.357469,-3.015806,1.432455,0.7190237,-0.1315476,0.04270827,-0.1207238,-0.01196677,1.608175,0.1286135
-0.203623,2.371887,-3.018475,1.434508,0.7209049,-0.1313544,0.04212984,-0.1199811,-0.009846662,1.610829,0.1275435
-0.1748935,2.386345,-3.021137,1.4366,0.7227854,-0.1309893,0.04154949,-0.1192477,-0.007748439,1.613504,0.1265164
-0.1461153,2.400841,-3.023786,1.438721,0.7246652,-0.1304546,0.04097199,-0.1185232,-0.005672049,1.616192,0.1255334
-0.117288,2.415377,-3.026419,1.440864,0.7265442,-0.1297526,0.04039348,-0.1178075,-0.003617404,1.618886,0.1245926
-0.08841392,2.42994,-3.029033,1.443013,0.7278942,-0.1288878,0.03943299,-0.1180472,-0.002424446,1.621335,0.1244829
-0.05949302,2.444531,-3.031623,1.445169,0.7292433,-0.1278621,0.03847938,-0.1182855,-0.001246018,1.623779,0.1243932
-0.03052528,2.459149,-3.034186,1.447328,0.7305916,-0.1266792,0.03753343,-0.1185222,-8.165027E-05,1.626214,0.1243233
-0.001510806,2.473795,-3.03672,1.449484,0.7319389,-0.125343,0.0365953,-0.1187575,0.001068949,1.628634,0.1242727
0.02755021,2.488469,-3.03922,1.451633,0.7332852,-0.123857,0.03566488,-0.1189913,0.002205295,1.631038,0.1242408
0.05665595,2.503163,-3.04168,1.453765,0.7342805,-0.122228,0.03346758,-0.1199783,0.00282007,1.633261,0.1245906
0.08580612,2.517876,-3.044098,1.455882,0.7352747,-0.1204618,0.03128979,-0.1209561,0.003422652,1.635461,0.1249846
0.1150002,2.53261,-3.04647,1.457982,0.736268,-0.1185672,0.02913324,-0.1219245,0.004013668,1.637638,0.1254211
0.1442378,2.547364,-3.048795,1.46006,0.7372603,-0.1165525,0.02699419,-0.1228839,0.004593057,1.639791,0.1258977
0.1735184,2.562137,-3.05107,1.462116,0.7382517,-0.1144263,0.02487519,-0.1238339,0.005160427,1.641917,0.126413
0.202843,2.576928,-3.053296,1.464144,0.7391509,-0.112198,0.02349643,-0.1243615,0.006247927,1.643974,0.1267158
0.2322108,2.591739,-3.055471,1.466143,0.7400494,-0.1098721,0.02212776,-0.1248845,0.00732069,1.646001,0.1270408
0.2616212,2.606568,-3.057593,1.468107,0.7409471,-0.107454,0.02077306,-0.1254029,0.008379585,1.647995,0.1273877
0.2910732,2.621415,-3.05966,1.470031,0.7418442,-0.1049491,0.01942749,-0.1259169,0.009424007,1.649951,0.1277548
0.320566,2.63628,-3.061671,1.471912,0.7427405,-0.1023628,0.01809383,-0.1264262,0.01045449,1.651868,0.1281416
0.3500955,2.651161,-3.063622,1.473744,0.7435305,-0.09970196,0.0161895,-0.1273192,0.01046531,1.653693,0.1287704
0.3796608,2.666058,-3.065512,1.475528,0.7443199,-0.09697273,0.01430352,-0.1282035,0.01047101,1.655475,0.1294232
0.4092608,2.68097,-3.067339,1.477264,0.7451088,-0.09418263,0.01243836,-0.1290794,0.01047148,1.657216,0.1300994
0.4388945,2.695897,-3.069103,1.478951,0.7458975,-0.0913391,0.0105894,-0.1299469,0.01046648,1.658916,0.1307971
0.468561,2.71084,-3.070804,1.480589,0.7466859,-0.08844954,0.008759071,-0.1308062,0.01045691,1.660575,0.1315155
0.4982599,2.7258,-3.07244,1.482179,0.747528,-0.08552045,0.007156312,-0.1312123,0.01071883,1.662218,0.1318437
0.5279903,2.740776,-3.074012,1.483719,0.7483699,-0.08255904,0.005569851,-0.1316147,0.0109742,1.66382,0.1321888
0.557751,2.755769,-3.075519,1.485209,0.7492118,-0.0795717,0.003999569,-0.1320134,0.01122285,1.665381,0.13255
0.587541,2.770779,-3.07696,1.486645,0.7500538,-0.07656474,0.002444416,-0.1324085,0.01146479,1.666901,0.1329264
0.6173593,2.785806,-3.078336,1.488029,0.750896,-0.07354441,0.000903319,-0.1328002,0.01170053,1.668378,0.1333177
0.6472039,2.800851,-3.079648,1.489359,0.7518117,-0.07051578,-0.0002197824,-0.1328435,0.01170757,1.669845,0.1333586
0.6770738,2.815914,-3.080895,1.490635,0.7527278,-0.06748457,-0.001332712,-0.1328867,0.01171051,1.671271,0.1334084
0.7069679,2.830995,-3.082079,1.491857,0.7536442,-0.06445529,-0.002434646,-0.1329298,0.01171101,1.672654,0.1334669
0.7368851,2.846094,-3.083198,1.493024,0.7545611,-0.06143243,-0.003523563,-0.1329726,0.01170833,1.673994,0.1335335
0.7668241,2.861212,-3.084254,1.494137,0.7554784,-0.05842043,-0.004602456,-0.1330152,0.01170359,1.675293,0.1336083
0.796783,2.876349,-3.085246,1.495197,0.7564695,-0.05542257,-0.005774033,-0.1328653,0.01135442,1.676583,0.1334746
0.8267607,2.891505,-3.086175,1.496204,0.7574613,-0.05244474,-0.006932208,-0.1327171,0.01100568,1.677833,0.133353
0.856756,2.906681,-3.087042,1.497159,0.7584537,-0.04949165,-0.00807599,-0.1325707,0.01065694,1.679043,0.1332433
0.886768,2.921876,-3.087846,1.498065,0.7594468,-0.04656794,-0.009210066,-0.1324261,0.01030829,1.680216,0.1331457
0.9167958,2.937091,-3.08859,1.498922,0.7604406,-0.04367822,-0.01033114,-0.1322834,0.009961549,1.681352,0.1330596
0.946839,2.952328,-3.089275,1.499733,0.7615597,-0.04082523,-0.01092693,-0.1315688,0.009849396,1.68251,0.1323887
0.9768966,2.967587,-3.089902,1.500498,0.7626796,-0.0380133,-0.0115165,-0.1308616,0.009736491,1.683633,0.1317277
1.006968,2.982868,-3.090472,1.501217,0.7638003,-0.03524487,-0.01210104,-0.1301616,0.009623206,1.684721,0.1310766
1.037052,2.998172,-3.090987,1.501891,0.7649218,-0.03252239,-0.01268055,-0.1294688,0.009508672,1.685775,0.1304353
1.067148,3.013498,-3.091447,1.50252,0.766044,-0.02984826,-0.01325195,-0.1287828,0.009395471,1.686796,0.1298033
1.097253,3.028848,-3.091854,1.503106,0.7672461,-0.02722382,-0.0136914,-0.1278797,0.008979428,1.687819,0.1289236
1.127368,3.044222,-3.092208,1.503649,0.7684489,-0.02465199,-0.0141226,-0.1269857,0.008566503,1.688811,0.1280555
1.157491,3.059619,-3.092512,1.504152,0.7696525,-0.02213458,-0.01455235,-0.126101,0.00815688,1.689772,0.1271997
1.187622,3.07504,-3.092765,1.504617,0.770857,-0.01967341,-0.01497584,-0.1252253,0.00775032,1.690704,0.1263555
1.21776,3.090485,-3.09297,1.505045,0.7720622,-0.01727025,-0.01539252,-0.1243585,0.007345756,1.691609,0.1255226
1.247904,3.105956,-3.093127,1.505439,0.7733568,-0.01492579,-0.01560666,-0.1231418,0.007028706,1.692527,0.1243257
1.278054,3.121453,-3.09324,1.505798,0.7746521,-0.01264205,-0.01581912,-0.1219375,0.006714438,1.693421,0.1231426
1.308209,3.136975,-3.093308,1.506126,0.7759482,-0.01041995,-0.0160252,-0.1207453,0.006401423,1.694291,0.1219722
1.338369,3.152522,-3.093333,1.506424,0.777245,-0.008260394,-0.01622861,-0.1195652,0.006091273,1.695137,0.1208152
1.368532,3.168096,-3.093317,1.506692,0.7785426,-0.006164263,-0.01643217,-0.118397,0.005783278,1.695962,0.1196717
1.398699,3.183697,-3.093261,1.506932,0.779912,-0.004131706,-0.01633785,-0.1169369,0.005516267,1.696798,0.1182015
1.428869,3.199325,-3.093167,1.507146,0.7812821,-0.002163176,-0.0162451,-0.1154915,0.005252801,1.697615,0.1167467
1.459042,3.21498,-3.093036,1.507335,0.7826528,-0.0002583711,-0.01615179,-0.1140606,0.004991738,1.698412,0.1153067
1.489217,3.230663,-3.09287,1.5075,0.7840241,0.001583015,-0.01605987,-0.1126442,0.00473242,1.699191,0.1138816
1.519393,3.246373,-3.09267,1.507642,0.785396,0.003361286,-0.01596767,-0.1112418,0.004474866,1.699953,0.112471
1.54957,3.262111,-3.092436,1.507762,0.7868103,0.005077117,-0.01582401,-0.1097169,0.004142468,1.700718,0.1109295
1.579748,3.277877,-3.092171,1.507863,0.7882251,0.006730649,-0.01568382,-0.1082072,0.003813756,1.701468,0.1094044
1.609926,3.293671,-3.091877,1.507944,0.7896403,0.008322389,-0.01554451,-0.1067128,0.003487619,1.702204,0.1078954
1.640104,3.309494,-3.091552,1.508009,0.791056,0.00985285,-0.01540422,-0.1052333,0.003165198,1.702926,0.1064019
1.670282,3.325344,-3.0912,1.508058,0.7924722,0.01132255,-0.01526634,-0.1037687,0.002846789,1.703637,0.1049243
1.70046,3.341224,-3.090822,1.508093,0.7939314,0.0127323,-0.01494724,-0.1021108,0.002684684,1.704357,0.1032339
1.730637,3.357132,-3.090419,1.508114,0.7953908,0.01408302,-0.01462735,-0.1004696,0.002525544,1.705067,0.1015602
1.760813,3.37307,-3.089993,1.508123,0.7968507,0.01537594,-0.01431308,-0.09884472,0.002367531,1.705767,0.0999037
1.790989,3.389037,-3.089543,1.50812,0.798311,0.01661229,-0.01399895,-0.09723621,0.002209739,1.706459,0.09826359
1.821163,3.405033,-3.089072,1.508106,0.7997716,0.01779328,-0.0136906,-0.09564381,0.002054183,1.707142,0.09664052
1.851336,3.421059,-3.088582,1.508081,0.8012519,0.01892022,-0.01331558,-0.09401605,0.001885209,1.707826,0.09497304
1.881508,3.437114,-3.088072,1.508047,0.8027326,0.01999447,-0.01294694,-0.09240457,0.001719867,1.708504,0.09332302
1.911678,3.453199,-3.087544,1.508004,0.8042135,0.02101745,-0.01257912,-0.09080925,0.001555973,1.709175,0.09168956
1.941846,3.469313,-3.086998,1.507953,0.8056947,0.02199061,-0.01221377,-0.08923007,0.001392967,1.709839,0.09007287
1.972013,3.485457,-3.086437,1.507895,0.8071761,0.02291539,-0.01185552,-0.08766659,0.001232236,1.710499,0.08847318
2.002177,3.501631,-3.08586,1.507831,0.8086755,0.02379327,-0.01147626,-0.0860896,0.001139227,1.711162,0.08685863
2.03234,3.517835,-3.085269,1.507761,0.8101752,0.02462566,-0.01110072,-0.08452846,0.00104692,1.711821,0.08526067
2.0625,3.534068,-3.084665,1.507685,0.811675,0.02541403,-0.01073145,-0.08298296,0.000955298,1.712476,0.08367945
2.092659,3.550332,-3.084048,1.507604,0.813175,0.02615984,-0.01036397,-0.08145293,0.0008653646,1.713128,0.08211419
2.122815,3.566626,-3.083418,1.507518,0.8146751,0.02686453,-0.01000009,-0.07993823,0.0007782432,1.713776,0.08056505
2.152969,3.58295,-3.082779,1.507429,0.816196,0.02752961,-0.009588093,-0.07843667,0.0007731597,1.714431,0.07902431
2.183121,3.599304,-3.082129,1.507335,0.817717,0.02815663,-0.009178564,-0.07695001,0.0007653219,1.715084,0.07749927
2.213271,3.615689,-3.081469,1.507237,0.8192381,0.0287472,-0.008775803,-0.07547819,0.0007599263,1.715733,0.07599045
2.243418,3.632105,-3.080801,1.507135,0.8207593,0.02930293,-0.008378167,-0.07402112,0.0007551378,1.71638,0.07449758
2.273564,3.648551,-3.080124,1.50703,0.8222805,0.02982537,-0.007983554,-0.07257858,0.0007528578,1.717025,0.07302023
2.303707,3.665027,-3.07944,1.506921,0.8238255,0.03031614,-0.007620714,-0.07123084,0.0007584507,1.717678,0.07164135
2.333848,3.681535,-3.078749,1.506808,0.8253704,0.03077661,-0.0072588,-0.06989641,0.0007621311,1.718329,0.07027645
2.363986,3.698074,-3.078051,1.506691,0.8269154,0.03120822,-0.006902178,-0.06857537,0.0007661502,1.718977,0.06892611
2.394121,3.714643,-3.077347,1.506571,0.8284605,0.03161237,-0.00655104,-0.06726763,0.0007735559,1.719623,0.0675903
2.424254,3.731244,-3.076638,1.506448,0.8300055,0.03199044,-0.006201562,-0.06597295,0.0007822287,1.720267,0.06626841
2.454385,3.747876,-3.075923,1.50632,0.8315932,0.0323439,-0.005871506,-0.06476808,0.0008586388,1.720928,0.06503934
2.484513,3.76454,-3.075204,1.506189,0.8331808,0.03267397,-0.005546812,-0.06357514,0.0009346205,1.721588,0.0638235
2.514639,3.781236,-3.074481,1.506054,0.8347684,0.03298192,-0.005223555,-0.06239425,0.00101232,1.722244,0.0626207
2.544762,3.797964,-3.073753,1.505915,0.8363562,0.03326904,-0.004905649,-0.06122512,0.001089524,1.722898,0.061431
2.574882,3.814724,-3.073023,1.50577,0.8379439,0.03353658,-0.004591591,-0.06006765,0.001166139,1.723548,0.06025417
2.604999,3.831517,-3.072289,1.505621,0.8395948,0.03378586,-0.004301836,-0.05903826,0.00127543,1.724226,0.05920852
2.635114,3.848343,-3.071551,1.505467,0.8412458,0.03401794,-0.004014173,-0.05801905,0.001383921,1.7249,0.05817422
2.665226,3.865202,-3.070812,1.505306,0.8428968,0.03423395,-0.003729764,-0.05701011,0.001490479,1.725571,0.05715143
2.695334,3.882094,-3.070069,1.50514,0.8445479,0.03443502,-0.003447297,-0.05601119,0.001600558,1.726237,0.05613999
2.72544,3.899019,-3.069325,1.504967,0.8461989,0.03462226,-0.003168766,-0.05502228,0.001708697,1.726898,0.05513994
2.755542,3.915979,-3.068578,1.504787,0.8479429,0.03479684,-0.002937807,-0.05419071,0.001845997,1.7276,0.05430167
2.78564,3.932974,-3.06783,1.504599,0.849687,0.0349596,-0.002712265,-0.05336753,0.001982081,1.728297,0.05347315
2.815736,3.950005,-3.06708,1.504404,0.851431,0.03511141,-0.002487023,-0.05255242,0.00211707,1.728988,0.05265382
2.845827,3.96707,-3.066328,1.5042,0.853175,0.03525316,-0.002266048,-0.05174543,0.002251934,1.729673,0.05184396
2.875915,3.98417,-3.065575,1.503987,0.8549191,0.03538573,-0.002048392,-0.05094663,0.002385678,1.730351,0.05104357
2.905998,4.001308,-3.06482,1.503764,0.8567977,0.03551005,-0.001854664,-0.05031272,0.002577293,1.731089,0.05041282
2.936078,4.018484,-3.064064,1.503531,0.8586763,0.0356268,-0.001663035,-0.04968505,0.002769321,1.73182,0.04978995
2.966153,4.035697,-3.063307,1.503286,0.8605549,0.03573671,-0.001475212,-0.04906357,0.002959584,1.732542,0.04917489
2.996223,4.052948,-3.062549,1.50303,0.8624336,0.03584054,-0.001287719,-0.04844819,0.003150256,1.733256,0.04856758
3.026289,4.070237,-3.06179,1.502762,0.8643122,0.03593901,-0.001103219,-0.0478389,0.003336944,1.733961,0.04796783
3.05635,4.087567,-3.06103,1.50248,0.8663756,0.03603293,-0.000938519,-0.04744004,0.003577902,1.734748,0.04758403
3.086405,4.104939,-3.060269,1.502183,0.868439,0.03612285,-0.0007784435,-0.04704532,0.00381339,1.735525,0.04720604
3.116455,4.122352,-3.059507,1.501871,0.8705024,0.03620941,-0.0006203559,-0.0466544,0.004048849,1.73629,0.04683387
3.146499,4.139807,-3.058744,1.501544,0.8725657,0.0362932,-0.0004650931,-0.04626732,0.004280942,1.737044,0.04646727
3.176537,4.157303,-3.05798,1.501199,0.8746291,0.03637484,-0.0003086934,-0.04588414,0.00450979,1.737785,0.04610627
3.206568,4.174846,-3.057215,1.500836,0.8769462,0.03645503,-0.0001592285,-0.04576111,0.004827119,1.738641,0.04601528
3.236593,4.192435,-3.056449,1.500453,0.8792632,0.03653424,-1.078273E-05,-0.04563943,0.005142476,1.739482,0.04592823
3.26661,4.210071,-3.055683,1.50005,0.8815801,0.03661305,0.0001351094,-0.04551877,0.005455964,1.740309,0.04584478
3.29662,4.227753,-3.054914,1.499625,0.8838971,0.03669203,0.0002819076,-0.04539932,0.005764221,1.741119,0.04576465
3.326622,4.245482,-3.054145,1.499177,0.8862139,0.03677172,0.0004260979,-0.04528098,0.006068572,1.741913,0.04568781
3.356616,4.263265,-3.053375,1.498705,0.8888792,0.03685284,0.0006296498,-0.04550931,0.006525075,1.742866,0.04597902
3.386601,4.281101,-3.052603,1.498206,0.8915445,0.03693601,0.0008299932,-0.04573543,0.006972848,1.7438,0.04627137
3.416577,4.298991,-3.051831,1.497679,0.8942096,0.03702202,0.001027867,-0.04595914,0.007419621,1.744714,0.04656554
3.446543,4.316935,-3.051056,1.497123,0.8968747,0.03711161,0.001224347,-0.04618058,0.007857585,1.745606,0.04686029
3.476499,4.334932,-3.050281,1.496536,0.8995396,0.03720555,0.001415676,-0.04639987,0.008295816,1.746475,0.04715689
3.506444,4.352993,-3.049503,1.495914,0.902689,0.0373048,0.001773262,-0.0471489,0.008947532,1.747569,0.04802313
3.536378,4.371117,-3.048724,1.495256,0.9058383,0.03741052,0.002125671,-0.0478904,0.009594087,1.748638,0.0488882
3.5663,4.389305,-3.047944,1.49456,0.9089874,0.03752406,0.002474377,-0.04862456,0.01023448,1.749679,0.04975154
3.59621,4.407556,-3.047161,1.493823,0.9121364,0.03764677,0.002818898,-0.0493512,0.01086768,1.75069,0.05061219
3.626105,4.425871,-3.046376,1.493042,0.9152852,0.03777998,0.003159475,-0.05007056,0.01149483,1.75167,0.05147013
3.655987,4.444263,-3.045589,1.492213,0.9191371,0.03792548,0.003990799,-0.05164907,0.01250707,1.752983,0.05329146
3.685854,4.462733,-3.044801,1.491333,0.9229888,0.03808607,0.004811234,-0.05321154,0.0135121,1.754261,0.05511073
3.715705,4.481281,-3.04401,1.490399,0.9268402,0.03826495,0.005623799,-0.05475845,0.01450668,1.755502,0.0569259
3.74554,4.499907,-3.043216,1.489407,0.9306914,0.03846527,0.00642647,-0.05628959,0.01549425,1.756701,0.05873576
3.775357,4.518611,-3.042419,1.488353,0.9345422,0.03869015,0.007218787,-0.0578055,0.01646832,1.757856,0.06053752
3.805155,4.537415,-3.041621,1.487226,0.939485,0.03894403,0.009558363,-0.06089742,0.01810833,1.759542,0.06424772
3.834935,4.556319,-3.040822,1.486026,0.9444274,0.03923495,0.01187175,-0.06395793,0.0197309,1.76118,0.06797694
3.864694,4.575322,-3.040021,1.484747,0.9493692,0.03957204,0.01416304,-0.06698727,0.02134376,1.762765,0.07171779
3.894431,4.594427,-3.039217,1.483381,0.9543103,0.03996434,0.01642964,-0.06998602,0.02294037,1.764291,0.07546016
3.924143,4.613631,-3.038407,1.481922,0.9592507,0.04042075,0.0186718,-0.07295424,0.02452326,1.765754,0.07919816
0,0,0,0,0,0,0,0,0,0,0
0,0,0,0,0,0,0,0,0,0,0
1.065814E-14,-0.003924534,8.940697E-08,0,-0.1962,0,0,0,0,0.1962,0
-0.001158494,-0.008322835,4.860386E-05,0,-0.2207484,0,-0.01604856,-0.0226366,-0.375442,0.2207484,0.376466
-0.00343765,-0.01316978,0.00014247,0.001288905,-0.2453016,-5.480177E-05,-0.03193696,-0.04504703,-0.7471293,0.245305,0.7491671
-0.006772823,-0.01841536,0.0002759136,0.005142515,-0.2698932,-0.0002169149,-0.04766624,-0.06723306,-1.1151,0.2699423,1.118141
-0.01107099,-0.02398716,0.0004405938,0.01282238,-0.2946138,-0.0005348168,-0.06323826,-0.08919733,-1.479391,0.2948932,1.483426
-0.01620844,-0.02979314,0.0006256588,0.02557258,-0.3196371,-0.0010512,-0.07865468,-0.110942,-1.840039,0.3206602,1.845058
-0.02008672,-0.03440196,0.0009528063,0.05330054,-0.2674186,-0.002143308,-0.08187632,0.3156013,-1.724843,0.2726871,1.755389
-0.0225355,-0.03789368,0.00144159,0.08957113,-0.2163064,-0.003843343,-0.06977898,0.7379118,-1.611519,0.23415,1.773803
-0.0233951,-0.04034724,0.002087522,0.1337606,-0.166494,-0.006481438,-0.0426841,1.155525,-1.5002,0.2136683,1.894112
-0.0225163,-0.04183969,0.002861362,0.1852345,-0.1181197,-0.01043451,-0.0009341688,1.568027,-1.391138,0.2199385,2.096181
-0.01976098,-0.04244542,0.003708642,0.2433419,-0.07127014,-0.01611065,0.0551056,1.975052,-1.284702,0.2540753,2.356762
-0.01393512,-0.04226054,0.003523581,0.3141046,-0.0007442087,-0.02475074,0.3952924,2.099097,-0.7710772,0.3150791,2.270909
-0.005079813,-0.04134063,0.002155643,0.3885906,0.06873359,-0.03433536,0.7549631,2.212565,-0.2762758,0.3961134,2.35409
0.006714687,-0.03965458,-0.0005289353,0.4641351,0.1379364,-0.04322991,1.132989,2.315581,0.1989575,0.4861242,2.585569
0.02130998,-0.03708587,-0.00463907,0.5382696,0.2076097,-0.04957053,1.528279,2.408612,0.6538261,0.5790451,2.926523
0.03851761,-0.03343613,-0.01024738,0.6087261,0.2783511,-0.05124956,1.939763,2.49245,1.087493,0.6713072,3.340304
0.05518483,-0.0293349,-0.01582755,0.6555204,0.2761557,-0.04739069,1.854168,2.418606,0.6812461,0.7128919,3.12277
0.07127687,-0.02486257,-0.02111695,0.6999756,0.2743462,-0.03853566,1.750922,2.3591,0.28115,0.7528058,2.951293
0.08681241,-0.02008381,-0.02587238,0.743867,0.2723923,-0.02495872,1.63039,2.313377,-0.1115213,0.7925646,2.83237
0.1018592,-0.01504631,-0.02987161,0.7889183,0.2698268,-0.007114246,1.493094,2.281001,-0.495594,0.8338161,2.770904
0.1165305,-0.009780526,-0.03291474,0.8367817,0.2662132,0.01437842,1.339698,2.261652,-0.8699924,0.8782254,2.76889
0.1345698,-0.004250839,-0.0349273,0.8961648,0.2872454,0.04208042,1.208298,2.335015,-0.1269276,0.9420149,2.632184
0.1560248,0.00149402,-0.03608496,0.957449,0.3074255,0.07220472,1.112895,2.390068,0.6155167,1.008183,2.707364
0.1808756,0.007533982,-0.03657759,1.017555,0.3276609,0.104245,1.053138,2.427203,1.355242,1.074079,2.972725
0.2090271,0.01407367,-0.03659643,1.073379,0.3487744,0.1380399,1.028831,2.447379,2.090198,1.137031,3.378917
0.2402944,0.02143295,-0.03632062,1.121786,0.3713518,0.1737712,1.039893,2.452097,2.818376,1.194363,3.877809
0.2705967,0.02776356,-0.0351366,1.14278,0.2974644,0.1949585,0.768895,2.223818,2.421181,1.196845,3.376193
0.2999124,0.03285854,-0.03288134,1.158801,0.2241393,0.2172083,0.4944219,1.990657,2.036501,1.200099,2.890416
0.3282484,0.03655314,-0.02942848,1.170708,0.1511599,0.240119,0.2172554,1.752372,1.664277,1.204601,2.426484
0.3556279,0.03872725,-0.0246848,1.179315,0.07842197,0.2632062,-0.06192495,1.508837,1.304436,1.210872,1.99549
0.3820814,0.03930354,-0.01858701,1.185389,0.005903959,0.2859189,-0.342542,1.260036,0.9569024,1.219398,1.618854
0.4085339,0.03981526,-0.01236797,1.191938,2.624094E-05,0.3192956,-0.1424252,1.023404,0.90375,1.233963,1.372736
0.4349111,0.0402558,-0.006016145,1.195722,-0.005663931,0.352024,0.05878196,0.7925936,0.8477046,1.246476,1.162008
0.4611476,0.04062162,0.0004950464,1.196795,-0.01135153,0.384938,0.260915,0.56756,0.7887725,1.257229,1.006163
0.487187,0.04091117,0.007206524,1.195244,-0.01721725,0.4188485,0.463832,0.3482698,0.7269883,1.266625,0.9300236
0.512981,0.04112539,0.01417296,1.19117,-0.02344672,0.4545425,0.6674126,0.1346961,0.6624159,1.275165,0.9499355
0.5376819,0.04031956,0.02304821,1.185619,-0.05757348,0.4872643,0.3029699,-0.05448876,0.3225514,1.283135,0.4458691
0.5612852,0.03845185,0.03383405,1.178988,-0.09194075,0.5209607,-0.05625184,-0.2420608,-0.0154427,1.292233,0.2489903
0.5837849,0.03553252,0.04650564,1.172243,-0.1262682,0.5544428,-0.4103149,-0.4280249,-0.3515657,1.302883,0.68932
0.6051738,0.0316225,0.06101139,1.166357,-0.1602821,0.586541,-0.7592782,-0.6124074,-0.685809,1.315336,1.192426
0.6254469,0.02683082,0.07727107,1.162322,-0.1937597,0.6161114,-1.103195,-0.7952535,-1.018158,1.32971,1.698857
0.6473244,0.02296124,0.09391291,1.160791,-0.1735345,0.6504601,-1.043547,-0.645443,-0.4553328,1.341882,1.308784
0.6708517,0.01996192,0.1108774,1.160819,-0.1526328,0.6802748,-0.9902712,-0.4860383,0.09937777,1.354095,1.107586
0.696012,0.01783592,0.1280962,1.160147,-0.1311839,0.705781,-0.9431778,-0.317279,0.6457924,1.364286,1.186296
0.7227267,0.0166392,0.145488,1.156512,-0.1093205,0.7271639,-0.9022062,-0.1394648,1.183768,1.370488,1.494902
0.7508537,0.01647529,0.162956,1.147657,-0.08725485,0.7445924,-0.8674176,0.04704564,1.713198,1.37082,1.920852
0.7774329,0.01605624,0.1803007,1.133172,-0.08983192,0.7567144,-0.712878,-0.08799464,1.317768,1.365564,1.500816
0.8023971,0.01526809,0.1974894,1.113568,-0.09270529,0.7660478,-0.5556538,-0.2231627,0.9284815,1.354791,1.104821
0.8257062,0.01403035,0.2144894,1.09034,-0.09588508,0.7731387,-0.3957887,-0.3583204,0.5452871,1.340067,0.7631384
