x,y,z,vx,vy,vz,ax,ay,az,v_mag,a_mag
0,0,0,0,0,0,0,0,0,0,0
8.881784E-16,-0.003924042,7.450581E-09,0,-0.1962,0,0,0,0,0.1962,0
-0.0002620316,-0.007631555,-3.498048E-05,0,-0.1849452,0,0.01152509,0.01599577,-0.09023301,0.1849452,0.09236173
-0.0007760646,-0.01112102,-0.0001034141,0.0003743928,-0.1736908,4.775967E-05,0.02293448,0.03183147,-0.1795639,0.1736912,0.1837999
-0.001524741,-0.01438965,-0.0002025589,0.001493868,-0.1624391,0.0001902002,0.03422975,0.04750896,-0.268001,0.1624461,0.2743234
-0.002483422,-0.01743336,-0.0003285594,0.003725469,-0.1511966,0.0004730663,0.04541193,0.06302978,-0.355554,0.1512432,0.3639418
-0.003256543,-0.02015179,-0.0003801472,0.007504177,-0.1359715,0.0009496121,0.02487591,0.08300748,-0.3243038,0.1361817,0.3356814
-0.003817363,-0.02254787,-0.0003559552,0.01265499,-0.1207756,0.001523926,0.004725363,0.102901,-0.2933221,0.1214463,0.3108839
-0.00414173,-0.02462411,-0.0002565943,0.01904703,-0.1056136,0.002106338,-0.01504482,0.1227091,-0.2626076,0.107338,0.2902527
-0.004208049,-0.02638294,-8.456036E-05,0.02655042,-0.09048793,0.002608108,-0.03443943,0.1424308,-0.2321582,0.09433871,0.274536
-0.003997265,-0.02782635,0.0001557544,0.03503614,-0.0753991,0.002941558,-0.05346303,0.1620649,-0.2019722,0.0831938,0.2644165
-0.003453257,-0.02898572,0.0002451316,0.04443339,-0.05904669,0.003020699,-0.002194522,0.1770225,-0.1580775,0.07395919,0.23734
-0.002565395,-0.0298624,0.0001833364,0.05450279,-0.04272506,0.003056051,0.04876158,0.1916715,-0.1148025,0.06932044,0.2286816
-0.001326718,-0.03045685,-2.586469E-05,0.06506058,-0.02642724,0.003259114,0.09940488,0.2060164,-0.07213993,0.07029865,0.2398505
0.0002661357,-0.03076851,-0.0003747605,0.07592656,-0.01014565,0.00384049,0.1497357,0.2200615,-0.03008313,0.07669763,0.2678672
0.002213016,-0.0307959,-0.0008516535,0.08692424,0.006126761,0.005010061,0.1997546,0.2338116,0.01137502,0.0872838,0.3077323
0.00417347,-0.03049178,-0.001159135,0.09778802,0.02059396,0.006960466,0.1534894,0.1603692,-0.03706441,0.1001751,0.2250578
0.006154229,-0.0298577,-0.001284651,0.1088152,0.0350461,0.009522445,0.1074787,0.08784257,-0.08509497,0.1147155,0.1628163
0.008165538,-0.02889454,-0.001220193,0.1202057,0.0494732,0.01251752,0.06172249,0.01622093,-0.1327195,0.1305898,0.1472659
0.01022111,-0.02760249,-0.0009622499,0.1321563,0.06386547,0.01576879,0.01622098,-0.0545054,-0.1799401,0.1476237,0.1887125
0.01233808,-0.02598105,-0.0005116984,0.1448611,0.07821231,0.01910182,-0.02902634,-0.124347,-0.2267603,0.1657311,0.2602402
0.01505396,-0.02416255,-0.0001034737,0.1583566,0.09009759,0.02230836,0.01137919,-0.01904478,-0.1436346,0.183554,0.1453378
0.01837714,-0.02214971,0.0002656989,0.1724486,0.1019426,0.02556752,0.05164857,0.08507059,-0.06130091,0.2019517,0.1168862
0.02230886,-0.01994346,0.000599768,0.1868013,0.1137666,0.02901736,0.09178048,0.1880116,0.02024764,0.2206345,0.2101951
0.02684335,-0.01754199,0.0009032823,0.2010834,0.1255898,0.03279523,0.1317732,0.289791,0.101018,0.2393383,0.3339875
0.03196788,-0.01494168,0.001181673,0.2149684,0.1374309,0.03703973,0.1716263,0.390422,0.1810157,0.2578189,0.4633051
0.03711812,-0.01208815,0.001685325,0.2280421,0.1478264,0.04185829,0.1230808,0.2965349,0.1259252,0.274969,0.3448753
0.04228847,-0.008984208,0.002425719,0.2406254,0.158242,0.04710934,0.07493154,0.2035998,0.07144215,0.2918225,0.228411
0.04747703,-0.005631685,0.003409401,0.2529353,0.1686672,0.05261937,0.02717565,0.1116068,0.01756033,0.3085347,0.1162023
0.05268554,-0.002031475,0.004638048,0.265185,0.1790938,0.05821428,-0.0201896,0.02054617,-0.03572666,0.3252485,0.04589291
0.05791933,0.001816601,0.006108498,0.2775847,0.1895137,0.0637207,-0.06716786,-0.06959156,-0.08842496,0.342095,0.1310476
0.06346546,0.005854934,0.007719614,0.2902677,0.1987121,0.06893644,-0.07651296,-0.009814085,-0.08264109,0.3584607,0.1130491
0.0693304,0.01008344,0.009465044,0.3032893,0.2078969,0.07384039,-0.08566849,0.0493896,-0.07700739,0.3750439,0.1253338
0.07552038,0.01450148,0.01133728,0.3166318,0.2170696,0.07837944,-0.09463624,0.1080244,-0.07152157,0.3918141,0.1604389
0.08204141,0.01910909,0.01332742,0.3302775,0.2262311,0.08250062,-0.1034198,0.1660958,-0.06618133,0.4087421,0.2065513
0.08889924,0.02390575,0.01542544,0.3442079,0.2353825,0.08615124,-0.1120218,0.2236086,-0.0609847,0.4258004,0.2574273
0.09614167,0.02883035,0.01745868,0.358332,0.2434855,0.08926308,-0.07189785,0.1936263,-0.02087518,0.442329,0.2075963
0.1037684,0.03388253,0.01942084,0.3725529,0.2515868,0.09202626,-0.03203411,0.1639841,0.01872185,0.4588686,0.1681294
0.1117763,0.03906272,0.02130916,0.386706,0.2596952,0.09461202,0.007570342,0.1346782,0.05781175,0.4753258,0.1467574
0.1201591,0.04437207,0.02312437,0.4006299,0.2678194,0.0971909,0.04691635,0.105705,0.09640061,0.4916072,0.1505582
0.1289078,0.04981239,0.02487067,0.4141654,0.2759676,0.09993249,0.08600471,0.07706086,0.1344944,0.5076195,0.177268
0.1379778,0.05539116,0.02668547,0.4270715,0.282823,0.1029853,0.08383361,0.09186056,0.1517813,0.5224796,0.1962244
0.1473562,0.06110939,0.02857469,0.4393671,0.2897114,0.1063554,0.08167122,0.1064769,0.1689236,0.5369242,0.2157376
0.1570288,0.0669686,0.0305439,0.450984,0.2966343,0.1100318,0.0795177,0.1209122,0.1859229,0.5508952,0.2356059
0.1669799,0.07297006,0.03259849,0.4618548,0.303593,0.1140041,0.07737353,0.1351685,0.20278,0.5643364,0.2556891
0.1771928,0.07911509,0.03474356,0.4719127,0.3105878,0.1182625,0.075239,0.1492476,0.2194962,0.5771936,0.2758883
0.1875627,0.0853276,0.03688787,0.4809619,0.3147447,0.1227338,0.1042401,0.1664854,0.2079118,0.5877518,0.2860258
0.1980729,0.09160839,0.03903987,0.4891934,0.3189279,0.1275942,0.132842,0.183694,0.1963834,0.5977503,0.2999282
0.2087076,0.09795842,0.04121025,0.4966566,0.3231283,0.1329581,0.1610481,0.200872,0.184912,0.6072541,0.3169834
0.2194519,0.1043784,0.04341201,0.5034015,0.3273368,0.1389389,0.1888635,0.2180178,0.1734982,0.6163331,0.3366049
0.2302919,0.1108694,0.04566035,0.5094786,0.3315435,0.1456488,0.2162924,0.2351304,0.1621432,0.6250625,0.3582724
0.2412566,0.1175218,0.04810616,0.5150248,0.3388734,0.1533166,0.2011969,0.1599084,0.1831151,0.6352888,0.3155662
0.2523324,0.1243352,0.05076607,0.5198515,0.3461899,0.1617868,0.1865917,0.08530129,0.2036245,0.6451884,0.28906
0.2635041,0.1313092,0.05365568,0.5238644,0.3534914,0.1710089,0.1724676,0.01130662,0.2236776,0.6547016,0.282674
0.274754,0.1384432,0.05678973,0.5269693,0.3607757,0.1809321,0.1588174,-0.0620779,0.2432798,0.6637712,0.2970887
0.2860623,0.1457368,0.06018188,0.5290713,0.3680402,0.1915049,0.1456332,-0.1348547,0.2624391,0.6723423,0.3290428
0.2971365,0.1532057,0.06382182,0.5300834,0.3767452,0.2027548,0.1369419,-0.0729184,0.1674325,0.681201,0.2282626
0.3079641,0.1608466,0.06771927,0.5303925,0.3854209,0.2145669,0.1282693,-0.01137305,0.07353201,0.6898583,0.148288
0.3185412,0.1686577,0.07188411,0.5303976,0.3940659,0.2269045,0.1196147,0.04978254,-0.01927511,0.6986381,0.1309867
0.3288714,0.1766383,0.0763265,0.5304942,0.4026806,0.2397321,0.1109785,0.1105494,-0.1110003,0.7078469,0.1919856
0.3389665,0.1847894,0.0810567,0.5310743,0.4112657,0.2530135,0.1023621,0.170929,-0.2016554,0.7177711,0.2834777
0.3490631,0.1930927,0.08614441,0.5325136,0.4180116,0.2665898,0.0769124,0.09282147,-0.1961387,0.7275813,0.230221
0.3591785,0.2015473,0.09159424,0.5347744,0.4247291,0.2804747,0.05142354,0.01558599,-0.1907487,0.7382714,0.1981726
0.3693291,0.2101521,0.09740873,0.5378137,0.4314221,0.2945676,0.02590038,-0.06078565,-0.1854841,0.749759,0.1969012
0.3795299,0.218907,0.1035883,0.5415884,0.4380952,0.3087696,0.0003456097,-0.1363021,-0.1803416,0.7619606,0.2260563
0.3897946,0.2278115,0.1101312,0.546056,0.4447532,0.3229843,-0.02523701,-0.2109717,-0.1753204,0.7747912,0.2754691
0.4002443,0.236821,0.1170155,0.5511224,0.4493101,0.3369711,-0.04632913,-0.150105,-0.1589282,0.7868704,0.2234638
0.4108897,0.2459349,0.1242384,0.5567852,0.4538627,0.350788,-0.06706733,-0.08976593,-0.1428173,0.7994081,0.1815289
0.4217413,0.2551528,0.131795,0.5629967,0.4584168,0.3643463,-0.08745555,-0.02995046,-0.1269849,0.8123174,0.157069
0.4328084,0.2644744,0.139678,0.5697102,0.4629779,0.3775573,-0.1074991,0.02934522,-0.1114266,0.8255106,0.1575851
0.4440999,0.2738998,0.1478785,0.5768787,0.4675514,0.3903326,-0.127202,0.08812502,-0.09613811,0.8388998,0.1821782
0.4557196,0.283505,0.1564161,0.5845898,0.4757096,0.4028017,-0.15585,0.06227696,-0.03510717,0.8545725,0.1714647
0.4676688,0.293291,0.1652763,0.5924597,0.4839002,0.4146241,-0.1841545,0.0368957,0.02542833,0.870104,0.1895277
0.4799436,0.3032596,0.1744429,0.600234,0.492137,0.4256879,-0.2121186,0.0119749,0.08547117,0.8852625,0.2290044
0.4925349,0.3134141,0.1838973,0.6076613,0.5004318,0.4358824,-0.2397469,-0.01249141,0.1450243,0.8998209,0.2804757
0.5054284,0.3237581,0.1936191,0.614493,0.5087938,0.445098,-0.2670435,-0.03650941,0.2040906,0.9135562,0.3380801
0.5181255,0.3341278,0.2031574,0.6203724,0.5134408,0.4530751,-0.1552553,-0.05708725,0.1064184,0.9239915,0.1966928
0.5306219,0.3445191,0.2125031,0.6258155,0.5181236,0.4604349,-0.04443131,-0.07752351,0.009913157,0.9338616,0.08990165
0.5429205,0.3549324,0.2216556,0.6312074,0.522814,0.4676247,0.06543642,-0.0978184,-0.08543824,0.943626,0.1454306
0.5550321,0.3653707,0.2306221,0.6369283,0.5274854,0.4750882,0.1743558,-0.1179727,-0.1796503,0.9537438,0.2767521
0.5669749,0.3758406,0.2394178,0.6433524,0.5321076,0.4832664,0.2823341,-0.1379884,-0.272735,0.9646695,0.4160982
0.5791987,0.3864848,0.2487324,0.6508656,0.5371263,0.4926201,0.1733192,-0.1425999,-0.2296811,0.9771413,0.321135
0.5917189,0.3972961,0.2585782,0.6592752,0.5420748,0.5026938,0.06525321,-0.1468166,-0.1873806,0.9905503,0.2468291
0.6045475,0.4082701,0.2689588,0.6684086,0.546977,0.5130558,-0.04186931,-0.1506445,-0.1458229,1.00458,0.2138016
0.6176925,0.4194053,0.2798684,0.6780974,0.5518605,0.5232778,-0.148055,-0.1540901,-0.1049967,1.018914,0.2380932
0.6311588,0.4307034,0.2912926,0.6881779,0.5567526,0.5329347,-0.2533097,-0.1571612,-0.06489401,1.033239,0.3050847
0.6450799,0.4419924,0.3025666,0.6983942,0.5597968,0.5415238,-0.1476784,-0.116867,0.008926474,1.046124,0.1885377
0.6594537,0.4532709,0.3136841,0.7085555,0.5628674,0.5495482,-0.04328193,-0.07674088,0.08213525,1.058713,0.120452
0.6742723,0.4645403,0.324646,0.7183772,0.5659613,0.5574154,0.05989375,-0.03678349,0.1547352,1.071023,0.1699508
0.6895217,0.475805,0.3354599,0.7275762,0.569075,0.5655283,0.1618623,0.003003899,0.2267316,1.083068,0.2785959
0.7051815,0.4870723,0.3461407,0.7358719,0.5722011,0.574286,0.2626364,0.0426199,0.2981304,1.094863,0.3995949
0.7205958,0.4984258,0.3572152,0.7429376,0.5739393,0.584016,0.1973671,0.0349604,0.1737687,1.105639,0.2652763
0.7357547,0.5098587,0.368698,0.7493224,0.5756609,0.5945225,0.1326899,0.02763871,0.05066719,1.11639,0.1446986
0.750658,0.5213672,0.3805983,0.7555127,0.5773603,0.6055509,0.06859959,0.02064879,-0.07118735,1.127314,0.1009946
0.7653154,0.5329511,0.39292,0.7619892,0.5790353,0.6168481,0.005090974,0.01398467,-0.1918063,1.1386,0.1923828
0.7797465,0.5446137,0.4056617,0.769228,0.5806829,0.6281636,-0.05784066,0.007640554,-0.3112024,1.150432,0.3166242
0.7946473,0.5562279,0.4186005,0.7775381,0.5785184,0.6390374,-0.05164718,-0.01467954,-0.2083445,1.160869,0.215152
0.8100309,0.5677896,0.4317324,0.7866535,0.5763287,0.6497133,-0.04563741,-0.03669649,-0.1064904,1.171796,0.1215303
0.8259022,0.5792965,0.4450547,0.7961743,0.5741288,0.660219,-0.03980803,-0.05841385,-0.005630143,1.182965,0.07091231
0.8422582,0.5907485,0.4585653,0.8057048,0.5719361,0.6705813,-0.03415603,-0.07983526,0.09424544,1.194132,0.1281503
0.8590884,0.6021481,0.4722632,0.8148531,0.5697681,0.680826,-0.02867818,-0.1009644,0.1931448,1.20505,0.2198208
0.8759198,0.6136645,0.4862925,0.8235132,0.5741709,0.6913188,-0.0674901,-0.07731769,0.1326776,1.218921,0.1677388
0.8927429,0.6252974,0.5006462,0.8316249,0.57861,0.7015536,-0.1058835,-0.05409013,0.07272358,1.232301,0.1393764
0.909553,0.6370473,0.5153141,0.8394338,0.5830818,0.7113723,-0.1438621,-0.03127585,0.01327992,1.245265,0.1478203
0.926351,0.6489153,0.5302832,0.8471836,0.5875832,0.7206183,-0.1814298,-0.008869177,-0.04565823,1.257881,0.1872968
0.9431423,0.6609035,0.5455372,0.855115,0.5921096,0.7291374,-0.2185911,0.0131354,-0.1040926,1.270219,0.2424662
0.9602562,0.6729055,0.5607873,0.8633748,0.5944523,0.736693,-0.1680675,0.01629667,-0.05355471,1.281213,0.177145
0.9776952,0.68492,0.5760217,0.8718497,0.5968102,0.7435785,-0.1180299,0.01954064,-0.003548825,1.29198,0.1196892
0.995458,0.6969464,0.5912327,0.8803412,0.5991831,0.7499919,-0.06847317,0.02286566,0.04592969,1.302501,0.08556255
1.013539,0.7089854,0.6064162,0.8886532,0.6015725,0.7561295,-0.01939283,0.02626963,0.09488688,1.312755,0.1003479
1.03193,0.7210383,0.6215719,0.8965915,0.6039796,0.7621858,0.02921615,0.02975052,0.1433283,1.322723,0.1492705
1.050591,0.7331026,0.6368781,0.9038835,0.6042312,0.7682861,0.02022992,0.0633062,0.1767601,1.331302,0.1888414
1.069508,0.7451796,0.6523353,0.9104886,0.6045049,0.7744571,0.01125835,0.0964813,0.2098834,1.339477,0.2312713
1.088663,0.7572715,0.6679429,0.9162809,0.6048032,0.7806604,0.002301776,0.12928,0.2426991,1.347141,0.2749936
1.108037,0.7693804,0.6836993,0.9211354,0.6051271,0.786859,-0.006638317,0.1617058,0.2752115,1.354185,0.3192714
1.127606,0.7815087,0.699602,0.9249281,0.6054756,0.7930175,-0.01556145,0.1937627,0.3074223,1.360503,0.3637232
1.146849,0.7936563,0.7156718,0.9275369,0.6059169,0.7991046,-0.03051939,0.1284536,0.1981625,1.366026,0.2381179
1.165756,0.8058191,0.7319084,0.9293818,0.6063706,0.805066,-0.04534966,0.06367256,0.09007367,1.370973,0.1192646
1.184321,0.8179953,0.7483093,0.93088,0.6068326,0.8108469,-0.06005155,-0.0005840819,-0.01685672,1.375593,0.06237531
1.202551,0.8301854,0.7648689,0.9324443,0.607301,0.8163916,-0.07462672,-0.06432033,-0.1226436,1.380131,0.157314
1.220458,0.8423924,0.7815794,0.9344841,0.6077729,0.8216451,-0.08907637,-0.1275401,-0.2272962,1.384828,0.2754353
1.238667,0.854663,0.798393,0.93744,0.6106057,0.8266135,-0.09100163,-0.1082635,-0.1521384,1.391015,0.2077219
1.257187,0.8669948,0.8153035,0.9409913,0.6134372,0.8312267,-0.09301029,-0.08903849,-0.07777223,1.397393,0.1504237
1.276023,0.8793868,0.8323047,0.9448442,0.6162713,0.8354763,-0.0951007,-0.0698656,-0.004187346,1.40376,0.11808
1.295171,0.8918388,0.8493896,0.9487081,0.6191127,0.8393527,-0.09726956,-0.05074577,0.06862157,1.409915,0.1294041
1.314623,0.9043523,0.866551,0.9522951,0.6219665,0.8428456,-0.09951606,-0.03167996,0.1406628,1.415661,0.1751944
1.334052,0.9168457,0.8836578,0.9552814,0.6222957,0.8459049,-0.06180912,0.0001318695,0.1058846,1.419637,0.1226048
1.35345,0.9293186,0.9007059,0.9578515,0.6226344,0.8487212,-0.02454599,0.03166225,0.07141472,1.423194,0.08188447
1.372812,0.9417708,0.9176948,0.9601427,0.622978,0.8514395,0.0122774,0.06291321,0.03725129,1.426508,0.07413815
1.392135,0.9542024,0.9346265,0.9622908,0.6233225,0.8542033,0.04866834,0.09388693,0.003390228,1.429754,0.1058057
1.411421,0.966614,0.951506,0.964431,0.6236644,0.8571544,0.08463006,0.124586,-0.03016829,1.433108,0.1536035
1.43067,0.979017,0.9685579,0.9666747,0.6220157,0.8603995,0.05052722,0.04233997,-0.03742387,1.435845,0.07580382
1.449887,0.9914106,0.9857852,0.9690668,0.6203619,0.8638393,0.01669903,-0.03905085,-0.04466021,1.438804,0.06163085
1.469077,1.003795,1.003188,0.97163,0.6187047,0.8673459,-0.01685656,-0.1195954,-0.05187719,1.441926,0.1314475
1.488243,1.01617,1.020763,0.9743867,0.617046,0.8707934,-0.05014255,-0.1993025,-0.05907476,1.445149,0.2138354
1.507389,1.028535,1.038504,0.9773599,0.6153872,0.8740572,-0.08316126,-0.2781807,-0.06625302,1.448416,0.2978083
1.526814,1.040965,1.056347,0.9806437,0.61798,0.8770792,-0.09791972,-0.2001745,-0.01435033,1.453557,0.2233026
1.546517,1.053459,1.074287,0.9839733,0.6205775,0.8797252,-0.1127141,-0.1228435,0.03682562,1.458505,0.170737
1.566492,1.066018,1.092315,0.9871505,0.6231827,0.8819309,-0.1275409,-0.046183,0.08727992,1.463087,0.1612989
1.586731,1.078643,1.110421,0.9899788,0.6257982,0.8836324,-0.1423987,0.02981244,0.1370218,1.467136,0.1998528
1.607221,1.091336,1.128591,0.9922632,0.6284248,0.884766,-0.157285,0.1051473,0.1860605,1.470481,0.2653546
1.627489,1.104055,1.146658,0.99381,0.6311466,0.8852704,-0.1203589,0.1087054,0.101788,1.472993,0.1914782
1.64753,1.116797,1.164613,0.9949524,0.6338718,0.8852931,-0.0839907,0.1121011,0.01826869,1.474947,0.1412616
1.667343,1.129563,1.182453,0.9960219,0.6365972,0.8849791,-0.04817333,0.1153371,-0.06450046,1.476653,0.1406543
1.686936,1.142353,1.200177,0.9973469,0.6393206,0.8844706,-0.01289803,0.118416,-0.1465277,1.478418,0.1888361
1.706323,1.155168,1.217784,0.9992537,0.6420392,0.8839071,0.02184031,0.1213413,-0.2278165,1.480545,0.2590387
1.726002,1.167992,1.235358,1.002034,0.6425506,0.88343,0.03043124,0.05789647,-0.1336912,1.482361,0.1488335
1.745981,1.180822,1.252902,1.005341,0.6430541,0.8830691,0.03887597,-0.004993271,-0.04055428,1.484601,0.05639967
1.766263,1.193659,1.270417,1.008806,0.6435552,0.8828615,0.04717584,-0.06733266,0.05160405,1.487043,0.09706815
1.78684,1.206502,1.287909,1.012069,0.6440598,0.882844,0.0553349,-0.1291264,0.1427932,1.489467,0.2003134
1.8077,1.219353,1.305384,1.01477,0.6445727,0.8830519,0.06335405,-0.1903789,0.2330233,1.491648,0.3075024
1.828489,1.232263,1.322804,1.016582,0.6482314,0.8835251,0.08376048,-0.09348232,0.1735398,1.494744,0.2141748
1.849195,1.245229,1.340175,1.017698,0.6518942,0.8843358,0.1037406,0.002613447,0.1148486,1.497573,0.1547874
1.869808,1.258252,1.357505,1.018355,0.6555569,0.885561,0.1232997,0.09791371,0.05694111,1.50034,0.1674282
1.890324,1.271332,1.374804,1.018788,0.6592165,0.8872781,0.1424431,0.1924241,-0.0001911325,1.503249,0.23941
1.910743,1.28447,1.392085,1.019229,0.6628705,0.8895629,0.1611776,0.2861502,-0.05655991,1.506502,0.3332554
1.931064,1.297743,1.409482,1.01992,0.6690515,0.8925259,0.1435995,0.241748,-0.08175715,1.511446,0.2928261
1.951297,1.311152,1.427006,1.020957,0.6752217,0.8960658,0.1260052,0.1978901,-0.1067444,1.516975,0.2577444
1.971451,1.324696,1.444668,1.022442,0.6813797,0.9001108,0.1083969,0.1545705,-0.1315207,1.52311,0.2300862
1.991541,1.338376,1.462477,1.024471,0.6875239,0.904589,0.09077654,0.1117835,-0.1560872,1.529873,0.2123656
2.01158,1.352191,1.480439,1.027143,0.6936523,0.9094293,0.0731448,0.06952337,-0.1804471,1.537283,0.2067482
2.031894,1.366031,1.498593,1.030449,0.6936264,0.9144057,0.04261005,0.1045158,-0.1196001,1.542427,0.1644486
2.052492,1.379892,1.516941,1.034234,0.6935878,0.9195419,0.01258889,0.1391789,-0.05927178,1.547986,0.1517972
2.073377,1.393775,1.535482,1.038267,0.6935432,0.9247166,-0.01692385,0.1735154,0.0005455935,1.553738,0.1743397
2.094548,1.407678,1.554212,1.042315,0.6935004,0.9298109,-0.04593782,0.2075283,0.05985407,1.559458,0.2208184
2.115999,1.421604,1.573123,1.046148,0.6934669,0.9347085,-0.07445861,0.2412208,0.1186558,1.564929,0.2789459
2.137473,1.43543,1.591816,1.049513,0.6919297,0.9392611,0.02751758,0.1631425,0.1214283,1.569222,0.2052256
2.158959,1.449158,1.610295,1.052421,0.6903976,0.9439106,0.1286704,0.08608903,0.1238009,1.573279,0.1982272
2.180448,1.46279,1.628574,1.054854,0.6888595,0.9490564,0.2290049,0.01004862,0.1257834,1.577325,0.2614684
2.201932,1.476331,1.646675,1.056799,0.6873013,0.9550934,0.3285241,-0.06498931,0.1273806,1.581585,0.358298
2.223404,1.489786,1.664623,1.05824,0.6857036,0.9624113,0.427235,-0.1390351,0.1286032,1.586284,0.4673321
2.24484,1.50335,1.683033,1.059176,0.6879027,0.9715734,0.3349257,-0.09186314,0.1004977,1.59343,0.3615437
2.266232,1.517014,1.70193,1.059695,0.6900375,0.9820657,0.243495,-0.04516075,0.07281626,1.601111,0.2581308
2.287571,1.530772,1.721329,1.059915,0.6921194,0.993524,0.1529382,0.001076055,0.04555482,1.609204,0.1595823
2.308854,1.544621,1.741241,1.059955,0.6941653,1.005589,0.06324351,0.04685102,0.018708,1.617584,0.08089962
2.330081,1.558559,1.761669,1.059932,0.696196,1.017904,-0.02559598,0.09216869,-0.00772971,1.626122,0.09596859
2.351217,1.57249,1.782192,1.059962,0.6974014,1.030067,0.02324639,0.06740217,-0.03313023,1.634297,0.07861971
2.372264,1.586416,1.802814,1.060139,0.6986011,1.042322,0.07155082,0.04286284,-0.05834945,1.642673,0.101791
2.393229,1.600337,1.823541,1.060558,0.6997827,1.054858,0.1193223,0.01854912,-0.08339492,1.651425,0.1467535
2.414118,1.614254,1.844385,1.06131,0.7009329,1.067866,0.1665661,-0.005541178,-0.1082633,1.66073,0.1987358
2.434942,1.628168,1.86536,1.062488,0.7020365,1.08153,0.2132899,-0.02940949,-0.1329601,1.670762,0.2530532
2.455986,1.6421,1.886847,1.064161,0.7005551,1.095852,0.141262,-0.08300976,-0.06321616,1.680508,0.1756185
2.477252,1.656044,1.908856,1.066056,0.6990302,1.110727,0.06977145,-0.1361785,0.005563589,1.690808,0.153113
2.498739,1.67,1.931391,1.067888,0.6974845,1.125879,-0.001183587,-0.1889182,0.0733881,1.701315,0.2026753
2.520433,1.683967,1.954451,1.069377,0.6959416,1.141032,-0.07160348,-0.2412321,0.1402705,1.711682,0.28809
2.542319,1.697948,1.978031,1.070248,0.6944236,1.155912,-0.1414938,-0.2931241,0.20622,1.721565,0.3853166
2.563919,1.711834,2.001851,1.07023,0.6903049,1.170049,-0.1285849,-0.241701,0.1054825,1.72943,0.293394
2.585226,1.725622,2.025899,1.06974,0.6862215,1.183691,-0.1154298,-0.1910214,0.005684712,1.736769,0.2232611
2.606244,1.739314,2.050164,1.069177,0.682169,1.196887,-0.1020345,-0.1410752,-0.09318195,1.743855,0.1974744
2.626982,1.752911,2.074637,1.068935,0.6781437,1.20969,-0.08840688,-0.09185339,-0.1911209,1.750957,0.2297391
2.647458,1.766418,2.099313,1.069404,0.6741404,1.222154,-0.07455069,-0.04334734,-0.2881432,1.758337,0.3007712
2.668137,1.779923,2.124331,1.070992,0.6727713,1.234497,-0.1066005,0.009792691,-0.2420737,1.767379,0.2646871
2.689038,1.793425,2.149683,1.073526,0.6714182,1.246425,-0.1380664,0.06265152,-0.1965733,1.776749,0.2482511
2.710176,1.806923,2.175357,1.07684,0.6700857,1.257812,-0.1689525,0.1152278,-0.15163,1.78625,0.254586
2.731562,1.820416,2.201337,1.080771,0.6687796,1.268531,-0.1992718,0.167521,-0.1072451,1.79569,0.2815565
2.753205,1.833906,2.227608,1.085154,0.6675057,1.27846,-0.2290318,0.2195302,-0.06340869,1.804877,0.323527
2.774965,1.847342,2.253977,1.089808,0.6655112,1.28744,-0.2027098,0.1633227,-0.04511509,1.813309,0.2641987
2.796844,1.860726,2.28043,1.094665,0.6635472,1.295618,-0.1766397,0.1077273,-0.02686387,1.821322,0.2086346
2.818845,1.874055,2.306954,1.099644,0.6616081,1.303099,-0.1508197,0.052738,-0.008654823,1.828937,0.1600087
2.840966,1.887332,2.333538,1.104664,0.6596899,1.309989,-0.1252516,-0.001650876,0.009510098,1.836176,0.1256229
2.863207,1.900554,2.360172,1.109646,0.6577892,1.316392,-0.09992839,-0.05544605,0.02762633,1.843065,0.1175719
2.885641,1.913779,2.386903,1.11457,0.6581194,1.322481,-0.09150549,-0.06536186,0.06088105,1.850498,0.1278747
2.908262,1.927006,2.413724,1.119247,0.6584663,1.328217,-0.08319917,-0.07510799,0.09383307,1.857539,0.1461778
2.931063,1.940236,2.440628,1.123546,0.6588309,1.333632,-0.0750059,-0.0846871,0.1264837,1.864132,0.1696936
2.954031,1.953472,2.467611,1.12734,0.6592137,1.338759,-0.06692528,-0.09410142,0.158835,1.870223,0.1963737
2.977154,1.966712,2.494668,1.130499,0.6596141,1.343629,-0.05895523,-0.1033532,0.1908908,1.875756,0.2249376
3.000239,1.979957,2.521882,1.132886,0.6590353,1.348251,-0.08055292,-0.04424377,0.149883,1.880303,0.1758158
3.023276,1.993204,2.549244,1.134682,0.65847,1.352558,-0.1020729,0.01414469,0.109174,1.884277,0.1501263
3.046258,2.006453,2.576746,1.136053,0.6579166,1.356466,-0.1235149,0.07182023,0.06875946,1.887716,0.1585621
3.06918,2.019706,2.604377,1.137159,0.6573739,1.359889,-0.1448777,0.1287907,0.02863764,1.890653,0.1959508
3.092043,2.032962,2.632125,1.138162,0.6568409,1.362742,-0.1661615,0.185064,-0.01118869,1.893124,0.248965
3.114961,2.046175,2.659727,1.139221,0.6568346,1.364946,-0.1043216,0.203684,-0.004777933,1.895345,0.2288952
3.137934,2.059343,2.687175,1.140306,0.6568324,1.366738,-0.04307421,0.2221248,0.001280743,1.897287,0.2262664
3.16096,2.072467,2.714469,1.141394,0.6568317,1.368355,0.01758853,0.2403879,0.006991987,1.899106,0.2411318
3.184036,2.085548,2.741611,1.142463,0.6568305,1.370036,0.0776642,0.2584746,0.01236531,1.900959,0.2701735
3.207159,2.098587,2.768609,1.143492,0.6568267,1.372016,0.1371647,0.2763872,0.0174043,1.903004,0.309042
3.230218,2.111554,2.795784,1.144441,0.6517748,1.374465,0.0965857,0.2043837,0.007734969,1.903604,0.2261886
3.253215,2.124448,2.823144,1.14537,0.6467179,1.377279,0.05638439,0.1331123,-0.00181199,1.904472,0.144573
3.276151,2.137269,2.850694,1.146315,0.6416577,1.380306,0.01655846,0.06256573,-0.01123607,1.90552,0.06568792
3.299029,2.150015,2.878433,1.147306,0.6365963,1.383395,-0.02289975,-0.007263472,-0.02054151,1.906659,0.0316087
3.321852,2.162687,2.906357,1.148376,0.6315358,1.386396,-0.06199045,-0.07638253,-0.02972609,1.907799,0.1027655
3.344623,2.175328,2.934288,1.14958,0.6306855,1.389224,-0.04487201,-0.1062104,-0.04744279,1.910299,0.1246794
3.367347,2.187939,2.962222,1.150964,0.6298364,1.391878,-0.02791695,-0.1357718,-0.06491686,1.912783,0.1530605
3.390029,2.200521,2.990158,1.152595,0.6289868,1.394428,-0.01112026,-0.165069,-0.08215425,1.91534,0.1847181
3.412678,2.213072,3.018094,1.154538,0.6281348,1.39694,0.005515863,-0.1941045,-0.09915809,1.91806,0.2180351
3.435301,2.225595,3.04603,1.156859,0.6272784,1.399482,0.02199279,-0.2228802,-0.1159338,1.921029,0.2521902
3.458239,2.238113,3.074131,1.159607,0.6254541,1.402109,-0.01667177,-0.1495629,-0.04802065,1.924004,0.1579651
3.481493,2.250627,3.102397,1.162535,0.6236279,1.404679,-0.05508291,-0.07691951,0.01907371,1.92705,0.09651189
3.505057,2.263135,3.130822,1.165384,0.6218055,1.407039,-0.0932373,-0.004943991,0.08536128,1.929902,0.1265077
3.528924,2.27564,3.159399,1.167902,0.6199918,1.409037,-0.1311394,0.0663693,0.1508473,1.932296,0.2106118
3.553078,2.288146,3.188113,1.169835,0.6181894,1.410522,-0.1687917,0.1370259,0.2155433,1.933971,0.3061464
3.57696,2.300595,3.216635,1.170943,0.6181654,1.411354,-0.09899519,0.06797616,0.1354886,1.935241,0.1810469
3.600562,2.312985,3.244962,1.171521,0.6181449,1.411797,-0.02981694,-0.0003524879,0.05627584,1.935907,0.06368787
3.623881,2.325317,3.273093,1.171878,0.6181252,1.412123,0.03874486,-0.06796741,-0.02210225,1.936354,0.08129726
3.646923,2.33759,3.301032,1.172321,0.618105,1.412601,0.1066938,-0.1348763,-0.09965788,1.936965,0.1987633
3.6697,2.349809,3.328788,1.173153,0.618082,1.4135,0.1740417,-0.2010863,-0.1763987,1.938117,0.3191281
3.692811,2.362107,3.356703,1.174688,0.6199846,1.415102,0.1294641,-0.1147385,-0.09801768,1.940821,0.1988299
3.71626,2.374481,3.384789,1.176606,0.621879,1.417221,0.08532028,-0.02936876,-0.02030053,1.944132,0.09248884
3.740044,2.386931,3.413052,1.178604,0.6237686,1.419679,0.0416093,0.05503361,0.0567578,1.947738,0.08933913
3.764158,2.399454,3.441494,1.180379,0.6256583,1.4223,-0.001676383,0.1384792,0.1331609,1.951327,0.1921227
3.788587,2.412055,3.470109,1.181634,0.6275521,1.424909,-0.04454169,0.2209789,0.2089169,1.954597,0.3073466
3.812816,2.42466,3.498774,1.182069,0.6278802,1.42732,-0.04524553,0.2000037,0.1453023,1.956722,0.2513193
3.836836,2.437266,3.527486,1.181942,0.6282109,1.429552,-0.04613504,0.1791791,0.08234595,1.958381,0.2025203
3.860642,2.449874,3.556244,1.181499,0.6285431,1.431603,-0.04720704,0.1585036,0.02004246,1.959718,0.1665941
3.884236,2.462482,3.585045,1.180984,0.6288769,1.433471,-0.04845453,0.1379761,-0.04161661,1.96088,0.1520434
3.907622,2.475091,3.613887,1.180637,0.6292129,1.435149,-0.04987169,0.1175959,-0.1026378,1.962006,0.1638612
3.931187,2.487669,3.642757,1.180697,0.6272886,1.436615,-0.04835638,0.08355178,-0.03643257,1.962498,0.1031822
3.954931,2.500214,3.671652,1.1809,0.6253657,1.437892,-0.04677013,0.04991024,0.02914253,1.962942,0.07434893
3.978849,2.512727,3.700567,1.180991,0.6234439,1.438988,-0.0451164,0.01666697,0.09409144,1.963189,0.1056715
4.002934,2.525209,3.729499,1.180717,0.6215229,1.439908,-0.04339591,-0.01618272,0.1584189,1.963089,0.1650504
4.02717,2.537662,3.758445,1.179828,0.6196008,1.44066,-0.04161351,-0.04864311,0.2221312,1.962498,0.2311712
4.05117,2.550061,3.787321,1.178069,0.6183071,1.44125,-0.01522353,-0.03032479,0.1519934,1.961467,0.1557348
4.074926,2.562405,3.816125,1.175717,0.6170074,1.44178,0.01089074,-0.01213127,0.08256535,1.960035,0.08415945
4.098434,2.574694,3.84486,1.173043,0.6157033,1.442352,0.03673079,0.005937832,0.01383898,1.958443,0.03969794
4.121694,2.586927,3.873528,1.170315,0.6143981,1.443067,0.06229805,0.02388323,-0.05418635,1.956927,0.08595125
4.144711,2.599106,3.902136,1.167798,0.6130946,1.444026,0.08759815,0.04170575,-0.1215214,1.955722,0.1555
4.16782,2.611293,3.930932,1.165763,0.6111598,1.445325,0.03312342,0.06362389,-0.08298796,1.954862,0.1096912
4.191028,2.623487,3.959919,1.164053,0.6092272,1.446754,-0.02072202,0.08538686,-0.04475242,1.954296,0.09860577
4.214337,2.635687,3.989091,1.162518,0.6072966,1.448106,-0.07394493,0.1069956,-0.006818027,1.953783,0.1302398
4.237746,2.647892,4.018441,1.161013,0.6053681,1.449173,-0.1265531,0.1284509,0.03081646,1.953081,0.1829343
4.261254,2.660106,4.047956,1.15939,0.6034406,1.449753,-0.1785505,0.1497541,0.06815434,1.95195,0.2427995
4.284696,2.672127,4.077213,1.157546,0.5970494,1.449647,-0.09466615,0.1581665,0.05621692,1.948809,0.1927139
4.308067,2.683956,4.106206,1.155488,0.5906554,1.449188,-0.01167613,0.1665654,0.04411697,1.945295,0.172704
4.331362,2.695593,4.134937,1.15326,0.5842595,1.448692,0.07043623,0.1749499,0.0318643,1.941669,0.1912696
4.354578,2.707039,4.163415,1.150911,0.5778625,1.448471,0.1516825,0.1833195,0.01945948,1.938192,0.2387306
4.37771,2.718298,4.191653,1.148488,0.5714644,1.448834,0.2320703,0.1916745,0.006912835,1.935127,0.3010707
4.400615,2.729481,4.220024,1.14602,0.5667731,1.450099,0.201977,0.09901363,-0.02897023,1.933231,0.2267988
4.423296,2.740588,4.248541,1.143666,0.5620764,1.452143,0.172059,0.007440667,-0.06480727,1.931999,0.1840099
4.445762,2.751618,4.277218,1.14156,0.5573745,1.454846,0.1423174,-0.0830555,-0.1005951,1.931425,0.1930591
4.468022,2.762572,4.306063,1.139835,0.552668,1.45809,0.1127458,-0.1724862,-0.1363232,1.9315,0.2470772
4.490088,2.773448,4.335081,1.13862,0.5479577,1.461762,0.08336147,-0.2608624,-0.1719914,1.932217,0.3233874
4.512321,2.784256,4.364242,1.138044,0.5432479,1.465748,0.0588844,-0.1985149,-0.12777,1.933567,0.2433119
4.53473,2.794992,4.393552,1.137941,0.5385342,1.469958,0.03462985,-0.1367805,-0.08401246,1.935383,0.164214
4.557316,2.805657,4.423015,1.138148,0.5338174,1.474301,0.01060417,-0.07565302,-0.04071062,1.9375,0.08656317
4.580082,2.816248,4.452631,1.138504,0.5290993,1.478685,-0.013201,-0.0151267,0.00213346,1.939755,0.02018997
4.603026,2.826766,4.482399,1.138851,0.5243825,1.483019,-0.03677931,0.04480457,0.04452774,1.941984,0.07309505
4.626082,2.837264,4.512325,1.139033,0.5223176,1.487269,-0.06142323,0.05471583,0.07767504,1.944783,0.1131373
4.649243,2.847743,4.542404,1.138919,0.5202578,1.491281,-0.08579365,0.06453024,0.1105033,1.947235,0.1540639
4.672499,2.858204,4.572628,1.13838,0.5182039,1.494961,-0.1098999,0.07424907,0.1430195,1.949193,0.1950526
4.695839,2.868648,4.602989,1.137291,0.5161552,1.498214,-0.1337446,0.08387329,0.1752194,1.950511,0.2358478
4.719247,2.879076,4.633472,1.135527,0.5141096,1.500951,-0.1573331,0.09340375,0.2071152,1.951047,0.2763597
4.742444,2.889341,4.663985,1.133039,0.5063157,1.503018,-0.1556207,0.1218167,0.1469489,1.949153,0.2462744
4.765419,2.899441,4.694517,1.130002,0.4985192,1.504505,-0.154151,0.1497647,0.08729487,1.946525,0.231975
4.78817,2.909374,4.725057,1.126639,0.4907209,1.505421,-0.1529211,0.1772532,0.02814312,1.9433,0.2357872
4.810695,2.919141,4.755595,1.123172,0.4829225,1.505773,-0.1519266,0.2042883,-0.03050411,1.939609,0.2564096
4.832998,2.928742,4.786121,1.119821,0.4751264,1.505566,-0.1511651,0.2308759,-0.08864751,1.935581,0.2898499
4.856208,2.938324,4.816005,1.116616,0.4789166,1.504758,0.05481011,0.2235767,0.2331382,1.934034,0.3276341
4.880292,2.947906,4.845251,1.112475,0.4826903,1.504185,0.2601843,0.2169559,0.5507793,1.932139,0.6466247
4.905194,2.95753,4.873875,1.106131,0.4864066,1.504675,0.4649299,0.2110147,0.86433,1.92981,1.003869
4.93083,2.96726,4.901915,1.096339,0.48997,1.507058,0.6690368,0.2057672,1.173837,1.92698,1.366691
4.957092,2.977182,4.929422,1.081877,0.4931986,1.512161,0.8724762,0.2012382,1.479343,1.923625,1.72921
4.982618,2.987388,4.957341,1.061256,0.4986677,1.520935,0.7761701,0.2840555,1.361291,1.920462,1.592558
5.007297,2.997822,4.98573,1.035214,0.5033401,1.532966,0.6779448,0.3652092,1.24624,1.91703,1.464957
5.031032,3.008432,5.014646,1.004275,0.5071194,1.547922,0.5778806,0.4446239,1.134141,1.913583,1.3483
5.053739,3.019166,5.044137,0.9689542,0.5099593,1.565479,0.4760731,0.5222393,1.024961,1.910407,1.244959
5.075347,3.02998,5.074246,0.9297584,0.5118573,1.585316,0.3725998,0.5980057,0.9186641,1.907794,1.15775
5.095849,3.040719,5.104753,0.8881354,0.5084242,1.606626,0.3771701,0.5809137,0.8392283,1.904869,1.088128
5.11519,3.051355,5.135701,0.8435432,0.5040993,1.629888,0.3810581,0.5646564,0.7604181,1.903212,1.02092
5.133322,3.061859,5.167138,0.7963133,0.4988914,1.655127,0.384267,0.549211,0.6822373,1.903274,0.9564213
5.150204,3.072204,5.199108,0.7467715,0.4928216,1.682362,0.3867927,0.5345529,0.6046941,1.905487,0.8949918
5.165802,3.082366,5.231655,0.6952371,0.4859222,1.711605,0.3886442,0.5206635,0.527784,1.910253,0.8370727
5.180138,3.092371,5.264904,0.641717,0.4793209,1.743042,0.3753158,0.4762348,0.4735845,1.918266,0.7693789
5.193189,3.102198,5.298898,0.5867133,0.4719624,1.776416,0.3620261,0.4325294,0.4197219,1.929413,0.7030725
5.204934,3.111827,5.333675,0.5304241,0.4638884,1.811636,0.3487651,0.389535,0.3662038,1.943854,0.6383415
5.215357,3.121239,5.369273,0.4730406,0.4551464,1.848609,0.3355339,0.3472455,0.3130224,1.961704,0.5754524
5.224444,3.130419,5.405725,0.4147481,0.4457886,1.88724,0.3223303,0.3056494,0.2601898,1.983032,0.5147981
5.232378,3.139347,5.443076,0.3569062,0.4321451,1.926628,0.2776743,0.3199626,0.2637364,2.006496,0.499035
5.239143,3.148009,5.48135,0.2983593,0.4179721,1.9674,0.2334146,0.3338794,0.267607,2.033318,0.4874129
5.244728,3.156394,5.520571,0.239116,0.4032906,2.009415,0.1895429,0.3474002,0.2717988,2.063388,0.4800917
5.24912,3.16449,5.560759,0.179183,0.3881239,2.052531,0.1460705,0.3605344,0.2762997,2.096575,0.4771407
5.252305,3.172287,5.601932,0.1185652,0.3724967,2.096609,0.1029986,0.3732865,0.2811048,2.13274,0.4785096
5.254025,3.179621,5.644056,0.05792854,0.3544868,2.141029,0.0623656,0.4128476,0.1955143,2.170949,0.4610406
5.254277,3.186486,5.687148,-0.003034528,0.3361834,2.186172,0.02128593,0.4519586,0.1111662,2.211872,0.4659158
5.253064,3.192875,5.731224,-0.06398205,0.3177251,2.231943,-0.02021848,0.490624,0.0280489,2.255352,0.4918408
5.250399,3.19879,5.776299,-0.1245776,0.2992513,2.278238,-0.06213754,0.5288453,-0.05384628,2.301182,0.5351989
5.246296,3.204234,5.822384,-0.1844898,0.2809001,2.324949,-0.1044558,0.5666275,-0.134524,2.349112,0.5916709
5.241025,3.209081,5.869499,-0.2399361,0.2523568,2.369203,-0.1363999,0.5293235,-0.1543398,2.394656,0.5679869
5.23461,3.213338,5.917645,-0.2943953,0.2241039,2.413581,-0.1683488,0.4924363,-0.1735213,2.441775,0.5485841
5.227073,3.217014,5.966821,-0.3478342,0.1961877,2.457925,-0.2002885,0.4559671,-0.1920808,2.490155,0.5337757
5.218438,3.220119,6.017023,-0.4002223,0.168652,2.502076,-0.2322144,0.4199108,-0.2100184,2.539489,0.5237904
5.208729,3.222662,6.068243,-0.4515318,0.1415383,2.545878,-0.2641126,0.3842684,-0.2273425,2.589481,0.5187507
5.197978,3.224654,6.120246,-0.50163,0.1145251,2.589084,-0.2440587,0.4084269,-0.2413582,2.639717,0.5335081
5.186205,3.226104,6.173028,-0.5505592,0.08796079,2.631868,-0.2242071,0.432179,-0.255513,2.690275,0.5498494
5.173436,3.22702,6.226582,-0.5982521,0.06183447,2.674307,-0.2045583,0.4555295,-0.2698027,2.741103,0.5675779
5.159694,3.22741,6.280905,-0.6446407,0.03613508,2.716478,-0.1851062,0.4784847,-0.2842208,2.792154,0.5865095
5.145006,3.227284,6.335996,-0.6896562,0.01085123,2.758455,-0.1658594,0.5010478,-0.2987662,2.843381,0.6064813
5.129231,3.226342,6.393833,-0.7305743,-0.02446735,2.797758,-1.04144,1.06255,-0.3882123,2.891675,1.537634
5.112515,3.224727,6.454381,-0.7694303,-0.05868371,2.834546,-1.905738,1.623384,-0.4699996,2.937706,2.547178
5.095083,3.222691,6.517546,-0.8056419,-0.0912398,2.866345,-2.758674,2.183679,-0.5444913,2.978812,3.560225
5.077235,3.220587,6.583153,-0.8388362,-0.1218715,2.890576,-3.600097,2.743651,-0.6121678,3.012296,4.567611
5.059341,3.21885,6.650895,-0.8689421,-0.150739,2.904551,-4.429811,3.303579,-0.6736584,3.03549,5.566926
5.041217,3.216992,6.717163,-0.8965901,-0.1767036,2.90555,-3.903115,3.159411,-0.7412366,3.045869,5.075984
5.022708,3.214714,6.781771,-0.9220164,-0.2026506,2.894926,-3.388809,3.00295,-0.8292037,3.04496,4.603186
5.003665,3.211761,6.844606,-0.9455633,-0.2292526,2.874249,-2.888151,2.833113,-0.9356215,3.034461,4.152509
4.983956,3.207934,6.905606,-0.9673572,-0.2568705,2.845084,-2.402272,2.649186,-1.05863,3.016002,3.729584
4.963464,3.20308,6.964748,-0.9873227,-0.2856155,2.80895,-1.932159,2.450785,-1.19647,2.991084,3.342323
4.943017,3.19746,7.022426,-1.004611,-0.3208877,2.768662,-1.716781,2.509112,-1.132759,2.962719,3.244399
4.922571,3.190984,7.078538,-1.020405,-0.3572492,2.723695,-1.49944,2.563924,-1.082427,2.930421,3.161277
4.90207,3.183577,7.133,-1.035158,-0.3946888,2.674733,-1.280906,2.614795,-1.045296,2.895087,3.093626
4.88145,3.175175,7.185749,-1.049248,-0.4331239,2.62247,-1.06195,2.661387,-1.021166,2.857598,3.041956
4.860637,3.16573,7.236738,-1.062977,-0.4724128,2.567605,-0.8433412,2.70344,-1.009804,2.81881,3.006579
4.839916,3.155748,7.286242,-1.077569,-0.5007716,2.506623,-0.8502111,2.952265,-0.9665291,2.774002,3.220699
4.819242,3.14519,7.334175,-1.092584,-0.5298983,2.443667,-0.8498334,3.199357,-0.9276966,2.728743,3.437837
4.798549,3.134018,7.38045,-1.108593,-0.5598232,2.37887,-0.8425936,3.444523,-0.8936604,2.683543,3.656956
4.777748,3.122192,7.424987,-1.126159,-0.5905542,2.312434,-0.8289278,3.687578,-0.8647794,2.639003,3.877267
4.756732,3.109678,7.467713,-1.145821,-0.6220763,2.244633,-0.8093114,3.928347,-0.841404,2.595816,4.098152
4.735002,3.096455,7.508434,-1.169319,-0.6452813,2.172011,-0.7464418,4.140425,-0.9379793,2.54977,4.310464
4.712405,3.082505,7.547172,-1.195613,-0.6691077,2.098873,-0.6885425,4.347765,-1.041685,2.506484,4.523523
4.688787,3.06782,7.583974,-1.224681,-0.6933647,2.025771,-0.6362323,4.550423,-1.151934,2.466647,4.736887
4.663994,3.052403,7.618914,-1.256419,-0.7178478,1.95325,-0.5901121,4.748487,-1.268083,2.43086,4.950192
4.63788,3.03627,7.652092,-1.290639,-0.742344,1.881835,-0.5507378,4.942098,-1.389411,2.39961,5.163149
4.610183,3.019849,7.683768,-1.330936,-0.7483731,1.804604,-0.5316886,4.931075,-1.493181,2.363905,5.179554
4.580865,3.003187,7.714092,-1.373065,-0.7539815,1.729415,-0.5233762,4.918659,-1.597126,2.333382,5.197878
4.549917,2.986338,7.743216,-1.416386,-0.7590001,1.656432,-0.5257028,4.90519,-1.700194,2.307813,5.218038
4.517358,2.969361,7.771289,-1.460243,-0.7632912,1.585714,-0.5384467,4.891044,-1.801347,2.286791,5.239951
4.483233,2.952322,7.798454,-1.503981,-0.7667534,1.517211,-0.5612918,4.876611,-1.899594,2.269758,5.263539
4.447767,2.935655,7.824439,-1.550573,-0.7530398,1.445182,-0.4279902,4.628617,-1.894413,2.249422,5.019569
4.411017,2.919408,7.849309,-1.595745,-0.7381929,1.375601,-0.3053943,4.37828,-1.898953,2.2324,4.782115
4.373053,2.903632,7.873128,-1.638855,-0.7220858,1.308595,-0.1943063,4.125973,-1.912104,2.218034,4.551654
4.333959,2.888377,7.895956,-1.67924,-0.7046366,1.244207,-0.09535341,3.872129,-1.932767,2.205541,4.328748
4.293834,2.873694,7.917847,-1.716224,-0.6858114,1.182408,-0.009028618,3.617211,-1.959885,2.194049,4.114055
4.253456,2.859897,7.938999,-1.750591,-0.656031,1.12047,0.01911966,3.136266,-1.768862,2.179541,3.60075
4.212962,2.846953,7.959339,-1.780759,-0.6250854,1.060643,0.04193017,2.659163,-1.581515,2.164901,3.094204
4.172468,2.834827,7.978795,-1.806864,-0.5931999,1.002504,0.05938361,2.186043,-1.397505,2.149804,2.595251
4.132071,2.823488,7.997304,-1.829095,-0.5605706,0.9456933,0.07149663,1.717027,-1.216533,2.134048,2.105528
4.091851,2.812906,8.014813,-1.847684,-0.5273641,0.8899112,0.07831199,1.252215,-1.038363,2.117544,1.628611
4.051768,2.803025,8.031354,-1.862786,-0.4953176,0.8352944,0.06027657,0.889271,-0.8980536,2.100721,1.265281
4.011885,2.793826,8.046899,-1.874752,-0.4629626,0.7811937,0.03843165,0.5301443,-0.759227,2.083097,0.9267986
3.972258,2.785294,8.061427,-1.883818,-0.4304063,0.7273802,0.01288006,0.1748627,-0.6218114,2.064728,0.646059
3.932936,2.777415,8.074924,-1.890226,-0.39774,0.6736528,-0.01631428,-0.1765626,-0.4857659,2.045717,0.5171161
3.893961,2.770178,8.087379,-1.894221,-0.3650407,0.6198323,-0.04907535,-0.5241304,-0.3510749,2.026208,0.6327516
3.855063,2.763618,8.098479,-1.896052,-0.3312352,0.5654876,0.04022922,-0.4098489,-0.3148581,2.006117,0.5183919
3.81628,2.757735,8.108236,-1.89599,-0.2973805,0.5113207,0.1290394,-0.2972965,-0.2781835,1.986118,0.4271094
3.777647,2.752532,8.116668,-1.894328,-0.2633916,0.4577529,0.2173587,-0.1864549,-0.241066,1.966568,0.3743302
3.739188,2.748016,8.123798,-1.891357,-0.2291831,0.4051948,0.3051895,-0.07730611,-0.2035183,1.947803,0.3748821
3.700922,2.744196,8.129662,-1.887367,-0.1946723,0.3540494,0.3925353,0.03016688,-0.165554,1.93013,0.4270856
3.662589,2.740922,8.134812,-1.882817,-0.1682447,0.306521,0.3082467,-0.06501547,-0.2188579,1.915009,0.3835907
3.624213,2.738195,8.139274,-1.87723,-0.1415505,0.2603724,0.2244464,-0.1585522,-0.2723148,1.90048,0.3868725
3.585823,2.73602,8.143061,-1.870284,-0.1146856,0.2152447,0.1411408,-0.2504617,-0.3259178,1.886119,0.4345966
3.547454,2.734398,8.146183,-1.86166,-0.08774504,0.1707857,0.05836145,-0.3407632,-0.3796531,1.871535,0.5134804
3.509144,2.733332,8.148638,-1.851039,-0.06082581,0.1266528,-0.02391073,-0.4294753,-0.4335153,1.856364,0.6107014
3.471232,2.732756,8.150044,-1.838241,-0.03636776,0.0829771,0.03823856,-0.3544883,-0.3853498,1.840472,0.5249939
3.433758,2.732666,8.150414,-1.823434,-0.01198278,0.039568,0.09999032,-0.280762,-0.3371698,1.823902,0.4500099
3.396757,2.733061,8.149759,-1.806897,0.01238276,-0.003311973,0.1613435,-0.2082823,-0.2889855,1.806942,0.3910574
3.360256,2.733939,8.148103,-1.788908,0.03678563,-0.04540825,0.222303,-0.1370339,-0.240797,1.789862,0.3552184
3.324277,2.735305,8.145468,-1.769742,0.0612839,-0.08647257,0.2828656,-0.06700259,-0.1926102,1.772913,0.3487133
3.288885,2.736934,8.142064,-1.750614,0.07557283,-0.1243947,0.2823084,-0.09337796,-0.1291683,1.756655,0.3241943
3.254089,2.738829,8.137917,-1.730872,0.09002222,-0.1610916,0.2815593,-0.1198408,-0.06650952,1.740682,0.3131469
3.219895,2.740993,8.13305,-1.710763,0.1046483,-0.196554,0.2806308,-0.1463862,-0.004628266,1.725194,0.3165501
3.186304,2.743429,8.127491,-1.690533,0.119468,-0.2307736,0.2795312,-0.1730095,0.05648331,1.710389,0.3335571
3.153313,2.746145,8.121265,-1.670425,0.1344984,-0.263743,0.2782637,-0.1997059,0.1168328,1.696458,0.3618882
3.120559,2.749038,8.114623,-1.651313,0.142995,-0.2944428,0.2190523,-0.1716596,0.07145253,1.683442,0.2873263
3.088037,2.752109,8.107579,-1.632389,0.1516512,-0.3241802,0.1605479,-0.1437805,0.02644704,1.671163,0.2171357
3.055749,2.755359,8.100147,-1.61349,0.1604117,-0.3532052,0.1027488,-0.116068,-0.01818628,1.659468,0.1560763
3.023696,2.758786,8.092332,-1.594449,0.1692245,-0.3817649,0.04562642,-0.08851992,-0.06244933,1.648226,0.1175477
2.991886,2.762391,8.084136,-1.575102,0.1780393,-0.4101036,-0.0108108,-0.06113683,-0.1063447,1.637323,0.1231413
2.960556,2.766206,8.075267,-1.555117,0.1885272,-0.4387007,0.02026449,-0.07245592,-0.08167653,1.626773,0.1110476
2.929712,2.770229,8.065727,-1.534754,0.1989937,-0.4671849,0.05097084,-0.08372115,-0.05721415,1.61658,0.1134932
2.899361,2.774461,8.055524,-1.514107,0.2094657,-0.495424,0.08131198,-0.09493291,-0.03295589,1.606811,0.1292671
2.869504,2.778902,8.044666,-1.49327,0.2199696,-0.5232877,0.1113062,-0.1060925,-0.008903269,1.597521,0.1540259
2.840145,2.783556,8.033165,-1.472338,0.2305313,-0.5506468,0.1409451,-0.1171985,0.01494687,1.588753,0.1839141
2.811442,2.788387,8.021089,-1.451435,0.2408695,-0.5773343,0.1587145,-0.08924425,0.09525415,1.580505,0.205495
2.783386,2.793401,8.008451,-1.430879,0.2513309,-0.6033291,0.1761025,-0.06178847,0.1748739,1.573082,0.2557553
2.755961,2.798605,7.99527,-1.411014,0.2619532,-0.6285707,0.1931341,-0.03482612,0.2538132,1.566742,0.3208345
2.729144,2.804006,7.981561,-1.392182,0.2727696,-0.6529996,0.2098014,-0.008349798,0.3320796,1.561725,0.3928908
2.702905,2.809614,7.967339,-1.374722,0.2838072,-0.6765563,0.2261178,0.01764529,0.4096746,1.558248,0.4682669
2.676827,2.815329,7.952832,-1.359454,0.2887021,-0.6984851,0.1707994,-0.02984903,0.3561417,1.555425,0.3961065
2.650883,2.821149,7.938051,-1.345606,0.2937745,-0.7197179,0.116395,-0.07707533,0.3029521,1.554012,0.3335692
2.62505,2.827073,7.923007,-1.332945,0.2989761,-0.7404616,0.06290432,-0.1240322,0.2501032,1.553838,0.2861687
2.599311,2.833101,7.907703,-1.321241,0.3042645,-0.7609217,0.01030707,-0.170717,0.1975933,1.554753,0.2613305
2.573651,2.83923,7.892139,-1.310264,0.309602,-0.7813015,-0.04140107,-0.2171292,0.145423,1.556624,0.2645883
2.548145,2.84548,7.875943,-1.299851,0.3136588,-0.8016699,0.03481301,-0.1874561,0.1318466,1.55906,0.2318087
2.522784,2.851851,7.859121,-1.289891,0.3177566,-0.8218606,0.1102392,-0.1578716,0.118711,1.562127,0.2262044
2.497564,2.858346,7.841683,-1.280343,0.3219215,-0.8415788,0.1848818,-0.1283773,0.1060074,1.56562,0.2487963
2.472477,2.864967,7.823647,-1.27117,0.3261778,-0.860532,0.2587478,-0.09897535,0.09372965,1.569325,0.2924582
2.447517,2.871719,7.805037,-1.262337,0.3305463,-0.8784298,0.3318485,-0.06966861,0.08186841,1.573021,0.348826
2.422596,2.878472,7.786291,-1.253972,0.3311905,-0.894666,0.2728443,-0.0464769,0.04372797,1.575614,0.2802075
2.397712,2.885221,7.767427,-1.245764,0.3319277,-0.9098201,0.2144409,-0.02336216,0.006040283,1.577935,0.2157943
2.372865,2.891968,7.748463,-1.237574,0.332729,-0.9241257,0.1566424,-0.0003255357,-0.03119749,1.57997,0.1597192
2.348058,2.898712,7.729406,-1.22926,0.333569,-0.9378139,0.09943652,0.02263129,-0.06799319,1.581722,0.1225678
2.323298,2.905452,7.710265,-1.220685,0.3344244,-0.9511141,0.04281493,0.04550806,-0.1043491,1.583202,0.1216258
2.299031,2.912307,7.690753,-1.211466,0.340628,-0.9646106,0.07032651,-0.00946111,-0.01409526,1.585608,0.07234643
2.275254,2.919278,7.67088,-1.202188,0.3468478,-0.9778206,0.09753502,-0.06401394,0.07518223,1.587984,0.1387921
2.251959,2.926369,7.650655,-1.193198,0.3531066,-0.9906241,0.1244352,-0.1181532,0.1634962,1.590516,0.2370134
2.229132,2.933583,7.630091,-1.18484,0.3594251,-1.002903,0.1510356,-0.1718816,0.2508596,1.593376,0.3395373
2.206751,2.940928,7.609205,-1.177457,0.3658191,-1.014543,0.1773421,-0.2252019,0.3372775,1.596724,0.442631
2.184459,2.948253,7.588163,-1.171617,0.3647466,-1.025029,0.165765,-0.1583754,0.3407359,1.598878,0.4106845
2.162231,2.95556,7.566978,-1.167074,0.3637431,-1.03485,0.1538398,-0.09230836,0.344344,1.601651,0.3882787
2.140039,2.96285,7.545658,-1.163858,0.3627957,-1.044064,0.1415792,-0.0269962,0.3480926,1.605072,0.3767518
2.117856,2.970121,7.524212,-1.161997,0.3618913,-1.052724,0.1289869,0.0375661,0.3519798,1.609171,0.3767474
2.095654,2.977374,7.50265,-1.161517,0.3610168,-1.060881,0.1160803,0.1013831,0.3560053,1.613978,0.3879342
2.07316,2.984643,7.481026,-1.162453,0.3620458,-1.068658,0.08515246,0.1043681,0.2681504,1.620001,0.3000804
2.050358,2.991925,7.459346,-1.164463,0.3630798,-1.076096,0.05432801,0.1073068,0.1812437,1.626586,0.2175214
2.027235,2.999215,7.437615,-1.167203,0.3641133,-1.083315,0.0236211,0.1101986,0.09527439,1.633558,0.1475768
2.003786,3.006513,7.415837,-1.170335,0.3651445,-1.090434,-0.006971938,0.1130436,0.01023307,1.64075,0.1137198
1.980015,3.013818,7.394009,-1.173523,0.366174,-1.097574,-0.03745195,0.1158423,-0.0738911,1.648001,0.1424148
1.956124,3.021067,7.372042,-1.176379,0.3632609,-1.104709,-0.03747123,0.1463295,-0.08785967,1.654148,0.1747447
1.932121,3.028259,7.349934,-1.178915,0.3603471,-1.11198,-0.03748614,0.1765016,-0.1017101,1.660178,0.2071303
1.908013,3.035396,7.327682,-1.181085,0.3574326,-1.119388,-0.03748233,0.2063618,-0.1154442,1.666058,0.2394107
1.883811,3.042477,7.305285,-1.182839,0.354517,-1.126933,-0.03746437,0.235913,-0.129063,1.671757,0.2715065
1.859524,3.049503,7.28274,-1.18413,0.3515997,-1.134616,-0.03743893,0.2651586,-0.1425667,1.677242,0.3033744
1.83544,3.056564,7.26002,-1.184931,0.3535627,-1.142636,-0.03678419,0.1501027,-0.09500159,1.683652,0.1814089
1.811563,3.063658,7.23712,-1.18538,0.355521,-1.150799,-0.03620672,0.03623073,-0.04782926,1.689929,0.07008017
1.787894,3.070785,7.214037,-1.185645,0.3574736,-1.159106,-0.03571129,-0.07646892,-0.001047941,1.696192,0.08440314
1.764432,3.077945,7.190768,-1.185893,0.3594203,-1.167554,-0.03528751,-0.188009,0.04534533,1.702559,0.196593
1.741172,3.085139,7.167314,-1.186289,0.3613607,-1.176144,-0.03494712,-0.2984009,0.09135475,1.709145,0.3140224
1.717768,3.092323,7.143627,-1.186983,0.3599458,-1.184728,-0.01058443,-0.2071601,0.06741083,1.715246,0.2181091
1.694216,3.099497,7.119704,-1.187904,0.3585281,-1.193356,0.01350882,-0.1168043,0.04378695,1.721557,0.1254712
1.670517,3.10666,7.095548,-1.188976,0.3571118,-1.201935,0.03734156,-0.02732485,0.02047803,1.727958,0.05060029
1.646668,3.113812,7.07116,-1.190122,0.3557014,-1.210368,0.06091424,0.06128659,-0.002518045,1.734331,0.08644611
1.622672,3.120954,7.046548,-1.19127,0.3543012,-1.218562,0.08422342,0.1490385,-0.02520618,1.740559,0.1730359
1.598784,3.128019,7.021923,-1.192338,0.3521596,-1.226395,0.03575288,0.1062456,0.008508125,1.746348,0.1124224
1.575003,3.135007,6.997286,-1.193456,0.3500233,-1.234087,-0.01215257,0.06384844,0.04195823,1.752091,0.07736149
1.551325,3.141919,6.972634,-1.194747,0.3478841,-1.241824,-0.05950149,0.02184374,0.07514413,1.758002,0.09830675
1.527743,3.148755,6.947963,-1.196333,0.3457333,-1.249791,-0.1063022,-0.0197723,0.1080681,1.764291,0.1528719
1.504246,3.155518,6.923262,-1.198335,0.3435614,-1.258172,-0.1525565,-0.06100299,0.1407312,1.771169,0.2163334
1.480313,3.162386,6.898186,-1.200937,0.3462266,-1.267372,-0.08974705,-0.03925992,0.02016912,1.779987,0.1000133
1.455947,3.169356,6.872731,-1.203611,0.3488739,-1.276932,-0.02747613,-0.01792336,-0.09917659,1.789119,0.1044614
1.431159,3.176431,6.846894,-1.205887,0.3515208,-1.286602,0.03425396,0.003012544,-0.2173178,1.798076,0.2200214
1.405972,3.183614,6.820681,-1.2073,0.3541822,-1.296136,0.09544723,0.02355367,-0.3342667,1.806373,0.3484239
1.380416,3.190915,6.794102,-1.207387,0.3568666,-1.305289,0.1561093,0.04370493,-0.4500363,1.813537,0.4783439
1.355271,3.1982,6.767467,-1.205708,0.3576752,-1.313741,0.1196197,0.03987295,-0.3279792,1.818675,0.3513817
1.330559,3.205462,6.740784,-1.202744,0.3584883,-1.321724,0.08356635,0.03602687,-0.2071224,1.822652,0.2262321
1.306291,3.212696,6.714056,-1.198969,0.3593004,-1.329379,0.04794843,0.03216676,-0.08745608,1.825889,0.1047966
1.282471,3.2199,6.687286,-1.194854,0.3601129,-1.336848,0.01274974,0.0282937,0.0310327,1.828803,0.04388756
1.259092,3.227075,6.660472,-1.190865,0.3609298,-1.34427,-0.02202808,0.02440737,0.1483558,1.8318,0.1519552
1.235641,3.234285,6.633453,-1.187468,0.3616007,-1.351774,-0.003001664,0.03665707,0.1048659,1.835246,0.1111288
1.212109,3.24153,6.606227,-1.184489,0.3622778,-1.359292,0.01577532,0.04882132,0.06179638,1.839003,0.0803192
1.188494,3.248807,6.578798,-1.18176,0.3629608,-1.366751,0.03430986,0.0609003,0.01914291,1.842907,0.07247388
1.164794,3.256118,6.551169,-1.179116,0.3636499,-1.374078,0.05260318,0.07289436,-0.02309766,1.846793,0.09281264
1.141013,3.263463,6.523345,-1.176392,0.3643454,-1.381202,0.07065804,0.0848041,-0.06492915,1.850503,0.1280628
1.11746,3.270775,6.495409,-1.173447,0.3634733,-1.387997,0.06162909,0.06926206,-0.01278778,1.853545,0.09358902
1.094134,3.278054,6.467367,-1.170462,0.3626087,-1.394556,0.05275777,0.05381393,0.03882525,1.856409,0.08477454
1.071032,3.285301,6.43922,-1.167635,0.3617531,-1.400912,0.04404223,0.03845979,0.08991639,1.859245,0.1072559
1.048143,3.292517,6.410974,-1.165165,0.3609079,-1.407098,0.03548435,0.02319898,0.1404896,1.8622,0.1467469
1.025456,3.299704,6.38263,-1.163246,0.3600731,-1.413146,0.02707585,0.008031715,0.1905503,1.865416,0.1926318
1.002694,3.306938,6.354024,-1.162065,0.3605605,-1.419129,0.07203589,-0.01512502,0.1535385,1.869312,0.1702704
0.9798476,3.314219,6.325165,-1.161486,0.3610591,-1.424828,0.1166339,-0.03786077,0.1168772,1.873379,0.1694025
0.9569073,3.321548,6.296063,-1.161363,0.3615712,-1.430068,0.1608616,-0.060181,0.0805641,1.87739,0.1897071
0.9338689,3.328924,6.266732,-1.161551,0.3620991,-1.434675,0.20473,-0.0820917,0.0445957,1.881119,0.2250382
0.9107309,3.33635,6.237191,-1.161907,0.362644,-1.438477,0.2482395,-0.1035988,0.008969731,1.884345,0.2691394
0.8875188,3.343693,6.207882,-1.162289,0.361588,-1.44128,0.1547899,-0.08165494,-0.008069884,1.886518,0.1751929
0.8642331,3.350952,6.178814,-1.162635,0.3605398,-1.443479,0.06230373,-0.05986305,-0.02502295,1.888211,0.08995269
0.8408754,3.358127,6.14999,-1.162881,0.3594943,-1.445435,-0.02922023,-0.03822235,-0.04188908,1.889659,0.06379236
0.8174493,3.365218,6.121402,-1.162961,0.3584477,-1.447506,-0.1198004,-0.01673193,-0.05866798,1.891094,0.1344396
0.79396,3.372229,6.093041,-1.162813,0.3573956,-1.450044,-0.209444,0.004608961,-0.07536087,1.892747,0.2226371
0.7705913,3.379313,6.06446,-1.162363,0.3595011,-1.453454,-0.1576798,0.0462692,-0.02923536,1.895483,0.1669085
0.7473446,3.38647,6.035648,-1.1618,0.3615946,-1.45749,-0.1063669,0.08762664,0.01625126,1.898633,0.1387676
0.7242173,3.393697,6.006598,-1.16131,0.3636792,-1.461948,-0.05550617,0.1286828,0.06110627,1.902155,0.1528861
0.7012025,3.400993,5.977305,-1.161073,0.3657591,-1.466628,-0.005085298,0.1694389,0.1053375,1.906008,0.1995781
0.6782894,3.40836,5.947771,-1.16127,0.3678386,-1.471328,0.04489642,0.2098974,0.1489536,1.910146,0.2612657
0.655264,3.415565,5.918175,-1.162037,0.3598229,-1.475617,0.03642807,0.2090525,0.1171663,1.912393,0.2424003
0.6321183,3.42261,5.888521,-1.163261,0.3518078,-1.479765,0.02791472,0.2082193,0.08573172,1.91485,0.2269018
0.6088467,3.429492,5.858813,-1.164826,0.3437927,-1.483803,0.01936253,0.2073972,0.05464605,1.917468,0.2153479
0.5854458,3.436211,5.829052,-1.166613,0.3357773,-1.48776,0.0107672,0.206586,0.023907,1.920199,0.2082432
0.5619148,3.442769,5.799239,-1.168506,0.3277618,-1.49167,0.002126158,0.2057852,-0.00648962,1.922996,0.2058985
0.5382672,3.449264,5.769404,-1.170443,0.3250737,-1.495674,-0.02052104,0.1158633,-0.05216159,1.926824,0.12871
0.5145078,3.455696,5.739545,-1.172189,0.3223858,-1.499753,-0.04313524,0.02684542,-0.09728806,1.9306,0.1097556
0.4906445,3.462066,5.709657,-1.17356,0.3196974,-1.503998,-0.06572305,-0.06127722,-0.1418743,1.934285,0.1679367
0.4666888,3.468376,5.679733,-1.174377,0.3170063,-1.508499,-0.08827814,-0.1485127,-0.1859278,1.93784,0.2538074
0.4426552,3.474626,5.649766,-1.17446,0.3143086,-1.513343,-0.1107995,-0.2348693,-0.229455,1.941224,0.3465396
0.4188968,3.480928,5.61939,-1.17362,0.3142644,-1.518686,-0.01054563,-0.200836,-0.1372775,1.944879,0.2434983
0.3954249,3.48728,5.588608,-1.17222,0.314216,-1.524067,0.08842824,-0.1673957,-0.04563063,1.948233,0.1947383
0.3722427,3.493682,5.557434,-1.170623,0.3141755,-1.529095,0.1861425,-0.1345401,0.04548508,1.951204,0.2341345
0.3493451,3.500137,5.525886,-1.169193,0.3141537,-1.533389,0.2826005,-0.1022618,0.1360705,1.953711,0.3299025
0.3267189,3.506655,5.493992,-1.168289,0.3141562,-1.536572,0.3778257,-0.07055447,0.2261248,1.95567,0.4459402
0.3039272,3.513153,5.462421,-1.168268,0.3166233,-1.538293,0.2632229,-0.02190173,0.1831419,1.957408,0.321414
0.2809565,3.519628,5.43119,-1.168975,0.3190954,-1.538967,0.1496153,0.02607202,0.1407922,1.958761,0.2070916
0.2577978,3.526074,5.400306,-1.170241,0.3215659,-1.539047,0.03698849,0.0733742,0.09906684,1.959983,0.1287096
0.2344461,3.532492,5.369769,-1.171901,0.3240334,-1.538978,-0.07466745,0.1200127,0.05795703,1.961327,0.1527655
0.2109003,3.538882,5.33957,-1.173791,0.3264989,-1.539201,-0.185362,0.1659961,0.0174551,1.96304,0.2494362
0.1875435,3.545345,5.309031,-1.17573,0.3266418,-1.540143,-0.08191855,0.1189538,0.08046619,1.964962,0.1653344
0.1643653,3.551879,5.278149,-1.177987,0.3267795,-1.541402,0.02071318,0.07264908,0.142679,1.967323,0.1614442
0.1413508,3.558485,5.246927,-1.180806,0.3269106,-1.542576,0.1225362,0.02707225,0.2041033,1.969953,0.2395959
0.1184812,3.565168,5.21538,-1.184427,0.3270307,-1.543267,0.2235618,-0.01778568,0.2647484,1.972686,0.3469697
0.09573342,3.571933,5.183529,-1.189088,0.3271301,-1.543082,0.323786,-0.06193301,0.3246249,1.97536,0.4626601
0.07242875,3.578612,5.15198,-1.194968,0.3253465,-1.541646,0.2354283,-0.02610146,0.1892028,1.977491,0.3031591
0.04855697,3.585197,5.120746,-1.201585,0.3235303,-1.539297,0.1478894,0.009671624,0.0552572,1.979372,0.1581713
0.02411837,3.591684,5.089836,-1.208416,0.321699,-1.536373,0.06115678,0.04538306,-0.0772272,1.98096,0.1084611
-0.0008763911,3.598074,5.059252,-1.214944,0.3198742,-1.533204,-0.0247705,0.08103048,-0.2082651,1.982202,0.2248418
-0.02640637,3.604376,5.028992,-1.220658,0.3180764,-1.530122,-0.109901,0.1166115,-0.3378724,1.983041,0.3739442
-0.05184523,3.610664,4.998836,-1.225088,0.3179696,-1.527433,-0.1249359,0.1376121,-0.2733018,1.983683,0.3305147
-0.07717285,3.616938,4.968773,-1.22844,0.3178902,-1.525224,-0.1395345,0.1586429,-0.2093886,1.984043,0.2974577
-0.102374,3.623196,4.938793,-1.230964,0.3178285,-1.523552,-0.1536943,0.1797,-0.1461277,1.984313,0.27797
-0.1274383,3.629436,4.90888,-1.23291,0.3177775,-1.522475,-0.167426,0.2007794,-0.08351395,1.984686,0.274442
-0.1523602,3.635659,4.879022,-1.234525,0.317732,-1.522048,-0.1807346,0.2218783,-0.02154256,1.985355,0.2869827
-0.177099,3.642,4.84892,-1.236083,0.3212163,-1.522328,-0.1068287,0.1304542,0.02602675,1.987099,0.1706109
-0.2016608,3.648459,4.818567,-1.237746,0.3246987,-1.52303,-0.03348338,0.04008316,0.07312229,1.989237,0.08985914
-0.2260541,3.655034,4.787963,-1.239701,0.328178,-1.523865,0.0392901,-0.04924644,0.1197484,1.991664,0.1353093
-0.2502902,3.661728,4.757114,-1.242135,0.3316526,-1.524545,0.1115022,-0.1375462,0.1659101,1.994274,0.2426476
-0.2743829,3.668542,4.726035,-1.245229,0.335119,-1.524787,0.1831605,-0.2248277,0.2116122,1.996967,0.3589916
-0.2988358,3.675391,4.695094,-1.249152,0.3376844,-1.524316,0.1442126,-0.1577952,0.1350138,1.999487,0.2528346
-0.323658,3.682271,4.664299,-1.253613,0.3402363,-1.523284,0.1057163,-0.0913184,0.05925135,2.001925,0.1517422
-0.3488523,3.689181,4.633654,-1.258313,0.3427802,-1.521841,0.06766152,-0.02539315,-0.01568385,2.004208,0.07395186
-0.3744149,3.696119,4.603164,-1.26295,0.3453234,-1.520131,0.03004767,0.0399849,-0.0898005,2.006263,0.10279
-0.4003359,3.703089,4.572831,-1.26723,0.3478735,-1.518299,-0.007132323,0.1048202,-0.1631069,2.008013,0.1940155
-0.4261861,3.709985,4.54268,-1.270782,0.3463019,-1.516524,-0.05479945,0.1139984,-0.1141129,2.008645,0.1703536
-0.4519574,3.71681,4.512705,-1.273886,0.3447396,-1.514954,-0.1018629,0.1232454,-0.06551099,2.009158,0.1727923
-0.4776454,3.723563,4.482897,-1.276731,0.3431841,-1.513774,-0.1483247,0.1325591,-0.01729933,2.009809,0.1996782
-0.5032491,3.730246,4.453243,-1.279507,0.3416321,-1.513164,-0.1941856,0.1419374,0.03052411,2.010849,0.2424582
-0.5287712,3.736862,4.423726,-1.2824,0.3400794,-1.513302,-0.2394653,0.1513781,0.07796202,2.012533,0.2938316
-0.5543116,3.743412,4.393952,-1.285525,0.3339805,-1.514338,-0.1623087,0.1438823,0.08998425,2.014283,0.2348263
-0.5798792,3.749896,4.363911,-1.288996,0.3278713,-1.515982,-0.0858807,0.1366375,0.1016901,2.016732,0.1907516
-0.6054837,3.75631,4.333598,-1.292858,0.3217515,-1.517942,-0.01016702,0.1296389,0.1130837,2.019691,0.1723297
-0.6311357,3.762655,4.303016,-1.297155,0.3156221,-1.51993,0.06483199,0.1228822,0.1241713,2.022972,0.1863377
-0.6568465,3.76893,4.272171,-1.301928,0.3094838,-1.521661,0.1391198,0.1163631,0.1349567,2.026388,0.2260708
-0.6828649,3.775141,4.241424,-1.307329,0.3073121,-1.522876,0.09967719,0.1385635,0.07511885,2.030443,0.1864892
-0.709194,3.781286,4.210782,-1.313024,0.3051339,-1.523688,0.06043843,0.160601,0.01603095,2.034395,0.172344
-0.7358323,3.787366,4.180251,-1.318783,0.3029549,-1.524248,0.02139535,0.1824762,-0.04231464,2.038211,0.1885361
-0.7627739,3.79338,4.149833,-1.32438,0.3007808,-1.524704,-0.0174559,0.2041897,-0.09992531,2.041856,0.2279983
-0.7900083,3.79933,4.119527,-1.329592,0.2986174,-1.525206,-0.0561041,0.2257436,-0.1568098,2.045297,0.2805301
-0.8170457,3.805282,4.089181,-1.334254,0.2988769,-1.525912,-0.04868407,0.1826907,-0.0720732,2.048895,0.2023378
-0.8438838,3.811234,4.05879,-1.338636,0.2991421,-1.526793,-0.04109627,0.1401393,0.01182957,2.052445,0.1465192
-0.8705266,3.817185,4.028348,-1.343068,0.2994055,-1.527823,-0.03334361,0.0980833,0.09490713,2.056141,0.1404973
-0.8969846,3.823137,3.997854,-1.347874,0.2996594,-1.528975,-0.0254273,0.05651781,0.177167,2.060176,0.1876938
-0.9232746,3.829093,3.967304,-1.353378,0.2998945,-1.530221,-0.01735124,0.01543746,0.2586158,2.064739,0.2596565
-0.9498639,3.835044,3.936685,-1.359853,0.2987208,-1.531524,-0.004156043,-0.006684503,0.1977284,2.069782,0.1978851
-0.9767661,3.840989,3.905998,-1.367098,0.2975199,-1.532844,0.008999676,-0.02853861,0.1374538,2.075352,0.1406734
-1.00399,3.846924,3.875244,-1.374879,0.2962985,-1.534134,0.0221174,-0.05012764,0.07778516,2.081262,0.09514458
-1.031541,3.852849,3.844424,-1.382962,0.2950654,-1.535345,0.03519864,-0.07145415,0.01871712,2.087326,0.08182279
-1.059418,3.858763,3.813541,-1.391116,0.2938301,-1.53643,0.04824024,-0.09252138,-0.03975718,2.09336,0.11166
-1.087471,3.864583,3.782602,-1.398949,0.2885934,-1.537323,0.06244449,-0.03236355,-0.03210018,2.098501,0.07731193
-1.115699,3.870308,3.751611,-1.406659,0.2833627,-1.537984,0.07653876,0.02717405,-0.02443659,2.10342,0.08481602
-1.144099,3.875939,3.720576,-1.414276,0.2781366,-1.538347,0.09052619,0.08609796,-0.01676686,2.108091,0.1260515
-1.17267,3.881475,3.689503,-1.421829,0.2729133,-1.538352,0.1044043,0.1444137,-0.009090398,2.112488,0.1784326
-1.201412,3.886918,3.658403,-1.429346,0.267691,-1.537936,0.1181793,0.2021282,-0.001411017,2.116586,0.2341456
-1.230134,3.892246,3.627364,-1.436866,0.2627289,-1.537037,0.1037298,0.1803988,0.04966376,2.120399,0.2139395
-1.258842,3.89746,3.596391,-1.444572,0.257757,-1.535714,0.08962872,0.1587681,0.1002335,2.124063,0.2080562
-1.287543,3.902561,3.565491,-1.452657,0.2527665,-1.534023,0.07587386,0.1372361,0.1503035,2.127752,0.2172136
-1.316251,3.907549,3.53467,-1.461311,0.2477482,-1.532019,0.0624569,0.1158036,0.1998757,2.131641,0.239294
-1.344982,3.912425,3.503931,-1.470724,0.242691,-1.529756,0.04937061,0.09447126,0.2489565,2.135903,0.2708166
-1.374132,3.917037,3.473256,-1.48064,0.2293849,-1.527391,0.04406611,0.135265,0.1868621,2.139588,0.2348529
-1.403712,3.921382,3.442651,-1.491233,0.2160383,-1.524837,0.03849627,0.1756848,0.1254391,2.143729,0.2192762
-1.433729,3.925458,3.412118,-1.502275,0.2026625,-1.522104,0.03266618,0.2157328,0.06468089,2.148186,0.2275771
-1.464185,3.929264,3.381665,-1.513542,0.1892705,-1.519204,0.02658856,0.2554121,0.004581955,2.152815,0.2568332
-1.495078,3.9328,3.351295,-1.52481,0.1758759,-1.516149,0.02026334,0.2947254,-0.05486403,2.157472,0.3004725
-1.526266,3.936249,3.320761,-1.536219,0.168445,-1.51285,0.0969946,0.301689,-0.0745568,2.16265,0.3255502
-1.557743,3.939613,3.290075,-1.547325,0.1610241,-1.509116,0.1728489,0.3085079,-0.09449735,2.167389,0.3660377
-1.589505,3.942894,3.259256,-1.558049,0.1536097,-1.504663,0.247832,0.3151853,-0.1146776,2.171434,0.4170293
-1.621544,3.946095,3.228328,-1.568309,0.1461948,-1.499208,0.3219539,0.321726,-0.1350898,2.174533,0.4747749
-1.65385,3.949219,3.197321,-1.57802,0.1387677,-1.492473,0.3952198,0.3281347,-0.1557282,2.176438,0.5367702
-1.686227,3.951982,3.166794,-1.586784,0.1248841,-1.484467,0.2909222,0.3226095,-0.1206167,2.176493,0.4508448
-1.718663,3.954377,3.136764,-1.595054,0.1109713,-1.475345,0.1878846,0.3171845,-0.08522223,2.175582,0.3783775
-1.751146,3.956401,3.10724,-1.602952,0.09703662,-1.465487,0.08609091,0.3118548,-0.04955567,2.174057,0.3272932
-1.78367,3.958052,3.078223,-1.610608,0.08309232,-1.455267,-0.01446819,0.3066166,-0.013627,2.172271,0.3072601
-1.816231,3.959331,3.049711,-1.618151,0.06915306,-1.445052,-0.1138011,0.3014687,0.02255353,2.170569,0.3230213
-1.849351,3.960263,3.021826,-1.625779,0.05676432,-1.435125,-0.2616818,0.1895307,-0.1463818,2.169323,0.3547209
-1.883016,3.960861,2.994549,-1.632833,0.04444657,-1.426131,-0.4090424,0.07826964,-0.3124897,2.168403,0.5206646
-1.9172,3.961148,2.967848,-1.638725,0.03223678,-1.418633,-0.5558727,-0.03230454,-0.4758052,2.167712,0.7324129
-1.951873,3.961152,2.941677,-1.64287,0.0201467,-1.413183,-0.7021739,-0.1421766,-0.6363637,2.167144,0.9582386
-1.986992,3.96091,2.915975,-1.644682,0.008152813,-1.410329,-0.8479487,-0.251325,-0.7941987,2.166581,1.188668
-2.021764,3.960608,2.889972,-1.643552,-1.728535E-05,-1.410606,-0.7469282,-0.1985079,-0.6696121,2.165888,1.022589
-2.056134,3.960217,2.863618,-1.639897,-0.0082445,-1.413682,-0.6467031,-0.1457204,-0.5466574,2.165139,0.8592401
-2.090058,3.959713,2.836869,-1.634175,-0.01657839,-1.419175,-0.5472623,-0.09297482,-0.4253207,2.164454,0.6993125
-2.123505,3.959074,2.809689,-1.626844,-0.02503909,-1.426712,-0.4485919,-0.04028258,-0.3055876,2.163967,0.5442804
-2.156452,3.958285,2.782048,-1.618358,-0.03362328,-1.435926,-0.3506834,0.01234711,-0.1874439,2.163816,0.3978272
-2.189421,3.957329,2.754117,-1.609284,-0.04459533,-1.446329,-0.3388245,-0.09354261,-0.2723958,2.164175,0.4446929
-2.222391,3.956205,2.725871,-1.599181,-0.05569433,-1.45797,-0.3274994,-0.199004,-0.3557655,2.164753,0.522903
-2.255332,3.954913,2.697282,-1.587712,-0.06695014,-1.470779,-0.3167059,-0.3040271,-0.4375704,2.165295,0.619841
-2.288208,3.953452,2.668324,-1.574545,-0.07839835,-1.484684,-0.3064414,-0.4086024,-0.5178357,2.165554,0.7273349
-2.320977,3.951824,2.638969,-1.559347,-0.09008178,-1.499605,-0.2967104,-0.5127195,-0.5965777,2.165293,0.8407278
-2.353175,3.950022,2.609371,-1.541327,-0.09717123,-1.515872,-0.3088822,-0.4039164,-0.5096872,2.164024,0.7199568
-2.384764,3.948035,2.579514,-1.521245,-0.1045585,-1.533153,-0.3205216,-0.2955519,-0.4244286,2.162331,0.608461
-2.415712,3.945853,2.549382,-1.499456,-0.1122378,-1.551519,-0.3316277,-0.1876363,-0.340779,2.160596,0.5111895
-2.445994,3.943471,2.518954,-1.476312,-0.1201959,-1.57105,-0.3422018,-0.08017952,-0.2587161,2.159199,0.4364228
-2.47559,3.94088,2.488208,-1.452162,-0.1284142,-1.591831,-0.3522482,0.0268092,-0.1782208,2.158516,0.3956769
-2.504665,3.938209,2.456805,-1.426962,-0.133906,-1.614297,-0.2948222,-0.02281772,-0.1784931,2.158729,0.3453991
-2.533205,3.93545,2.424726,-1.401072,-0.1396247,-1.637876,-0.2381452,-0.07215185,-0.1784465,2.159893,0.3062061
-2.561196,3.932595,2.391955,-1.374467,-0.1455515,-1.662324,-0.1822078,-0.1211913,-0.1780836,2.161867,0.2821361
-2.588622,3.929639,2.358479,-1.347125,-0.1516645,-1.6874,-0.1270072,-0.1699354,-0.1774158,2.164501,0.2765597
-2.615469,3.926577,2.324294,-1.319023,-0.1579401,-1.712863,-0.07253312,-0.2183833,-0.1764447,2.167641,0.2899742
-2.641582,3.923374,2.289521,-1.290045,-0.1637295,-1.738562,-0.05152858,-0.2304829,-0.1273971,2.171088,0.2683423
-2.666951,3.920026,2.25416,-1.260463,-0.1696201,-1.764323,-0.03099152,-0.2424635,-0.0787312,2.174942,0.2568027
-2.691569,3.916532,2.218215,-1.230456,-0.1755734,-1.790056,-0.0109096,-0.2543264,-0.03044581,2.179254,0.2563745
-2.715432,3.912892,2.181691,-1.200203,-0.1815508,-1.815678,0.008718629,-0.266072,0.01745952,2.184064,0.2667867
-2.738539,3.909106,2.144592,-1.16988,-0.1875131,-1.841106,0.02790444,-0.2777022,0.06498587,2.189395,0.2865664
-2.76094,3.90518,2.107045,-1.139626,-0.1931786,-1.866291,0.01048706,-0.2774591,0.09765258,2.195247,0.294329
-2.782641,3.901114,2.069054,-1.109605,-0.19878,-1.891269,-0.006937658,-0.2772586,0.1298966,2.201735,0.3062574
-2.803651,3.896913,2.030622,-1.079941,-0.2043074,-1.916109,-0.02436576,-0.2771008,0.1617218,2.208956,0.3217646
-2.823981,3.892577,1.991752,-1.050756,-0.2097517,-1.940878,-0.04179263,-0.2769855,0.1931337,2.217,0.3402473
-2.843643,3.888112,1.952443,-1.022171,-0.2151051,-1.965646,-0.05921988,-0.276912,0.2241352,2.225953,0.3611424
-2.862845,3.883501,1.912549,-0.9948421,-0.2240465,-1.990005,-0.02190689,-0.2594825,0.1979025,2.236074,0.3270726
-2.881596,3.878743,1.87207,-0.9681284,-0.2328917,-2.014306,0.01509816,-0.2420925,0.1721161,2.246985,0.2974234
-2.899906,3.873842,1.831009,-0.9419426,-0.2416385,-2.038422,0.05179686,-0.2247426,0.1467708,2.258497,0.2733748
-2.917781,3.868797,1.789373,-0.9161996,-0.2502843,-2.062227,0.08819074,-0.2074334,0.12186,2.270428,0.2562345
-2.935228,3.86361,1.747171,-0.8908159,-0.2588262,-2.085595,0.1242815,-0.1901662,0.09737954,2.282598,0.2471677
-2.952225,3.858164,1.704699,-0.8662363,-0.2711979,-2.107923,0.06560373,-0.197564,0.08254471,2.295049,0.2239398
-2.968776,3.852459,1.661962,-0.8418727,-0.2835002,-2.129912,0.007582325,-0.2049645,0.067618,2.307737,0.2159633
-2.984886,3.846495,1.61896,-0.8176679,-0.2957663,-2.151774,-0.04978632,-0.2123666,0.0526033,2.320817,0.2243777
-3.000558,3.840272,1.575689,-0.7935636,-0.3080288,-2.173717,-0.1065096,-0.2197695,0.03750509,2.334453,0.247082
-3.015793,3.833792,1.532143,-0.7695002,-0.3203202,-2.195946,-0.1625955,-0.2271721,0.022326,2.348811,0.2802551
-3.030424,3.827172,1.488036,-0.744668,-0.3269581,-2.219369,-0.1253794,-0.1882514,0.06252617,2.36369,0.234666
-3.044455,3.820411,1.443364,-0.7199839,-0.3336241,-2.243175,-0.0887337,-0.149574,0.1023669,2.379394,0.2018044
-3.057892,3.81351,1.398121,-0.6956163,-0.3402825,-2.267243,-0.05265056,-0.1111389,0.1418519,2.395844,0.1877389
-3.070745,3.806472,1.352307,-0.6717328,-0.3468978,-2.291458,-0.01712402,-0.07294643,0.1809783,2.412953,0.1958764
-3.083027,3.799298,1.30592,-0.6485004,-0.3534361,-2.315703,0.01785372,-0.03499582,0.2197499,2.430628,0.2232341
-3.094919,3.791974,1.258923,-0.6263694,-0.3622754,-2.339558,0.06133165,-0.03407194,0.2026909,2.4489,0.2144903
-3.106435,3.784503,1.211323,-0.6049821,-0.3709974,-2.363168,0.1043821,-0.03296242,0.185833,2.467428,0.2156758
-3.117588,3.776887,1.163128,-0.5842763,-0.3795922,-2.386372,0.1470088,-0.03167046,0.1691735,2.486009,0.2263499
-3.128391,3.769129,1.114352,-0.564191,-0.3880507,-2.409012,0.1892157,-0.03020005,0.1527123,2.504443,0.2450218
-3.138853,3.761234,1.06501,-0.5446659,-0.3963643,-2.430929,0.2310063,-0.02855545,0.1364458,2.522535,0.2698088
-3.148914,3.753029,1.015342,-0.5263224,-0.4112559,-2.451214,0.2036765,-0.04138779,0.1456867,2.54059,0.2538143
-3.158584,3.744518,0.96536,-0.5084908,-0.4260137,-2.470745,0.176651,-0.054208,0.1547592,2.558247,0.241028
-3.167876,3.735701,0.9150783,-0.4912002,-0.4406493,-2.489615,0.1499245,-0.06701414,0.1636685,2.575584,0.2318526
-3.176799,3.726582,0.8645073,-0.4744792,-0.4551736,-2.507918,0.1234956,-0.0798054,0.1724125,2.592676,0.2265968
-3.185368,3.717162,0.8136557,-0.458356,-0.4695965,-2.525747,0.09736104,-0.09258,0.1809968,2.609599,0.2254109
-3.193556,3.707612,0.7624332,-0.4421754,-0.4759135,-2.54396,0.1016627,-0.07856222,0.2010796,2.625594,0.2386217
-3.20138,3.697937,0.7108481,-0.4267303,-0.4821302,-2.561763,0.1058337,-0.06470808,0.220998,2.641434,0.2534325
-3.208857,3.688137,0.6589087,-0.4121025,-0.4882433,-2.579144,0.1098766,-0.0510157,0.2407525,2.657102,0.2695129
-3.216005,3.678217,0.6066237,-0.3983726,-0.4942504,-2.596092,0.113795,-0.03748441,0.2603433,2.672579,0.2865886
-3.222845,3.66818,0.5540019,-0.3856208,-0.5001504,-2.612598,0.1175893,-0.02411265,0.2797716,2.687847,0.3044352
-3.229718,3.658091,0.5011412,-0.3737877,-0.5036885,-2.62884,0.08098704,-0.1100662,0.1778879,2.702632,0.2243158
-3.236635,3.647948,0.4480475,-0.3626048,-0.5071595,-2.644745,0.04527565,-0.1951248,0.07680255,2.717235,0.2145279
-3.243598,3.637748,0.3947228,-0.3516563,-0.5105993,-2.660432,0.01044198,-0.2792957,-0.02348252,2.731716,0.2804756
-3.250603,3.627492,0.3411654,-0.34053,-0.5140409,-2.676017,-0.0235275,-0.3625884,-0.1229731,2.746136,0.3835965
-3.257634,3.617181,0.2873703,-0.3288165,-0.517518,-2.69161,-0.056645,-0.4450126,-0.2216738,2.760563,0.500384
-3.264181,3.606707,0.2332064,-0.316371,-0.5250307,-2.70699,-0.02569943,-0.3273385,-0.1253487,2.775525,0.3514588
-3.270232,3.596067,0.1786777,-0.3033517,-0.5325832,-2.722383,0.004603659,-0.2108686,-0.0298473,2.790526,0.2130202
-3.275786,3.585262,0.1237881,-0.2901551,-0.5401422,-2.737703,0.03427336,-0.09558988,0.06483734,2.805524,0.1204822
-3.280851,3.574292,0.06854162,-0.2771739,-0.5476737,-2.75287,0.06331918,0.01850939,0.1587093,2.820472,0.1718736
-3.285441,3.563163,0.0129421,-0.2647973,-0.5551459,-2.767802,0.09175029,0.131441,0.2517747,2.835318,0.2984717
-3.289848,3.55179,-0.04294259,-0.2537208,-0.567683,-2.782019,0.08395313,0.04994885,0.2253935,2.850661,0.2456527
-3.294088,3.540174,-0.0991053,-0.2434865,-0.5801485,-2.795939,0.07657156,-0.03071827,0.19915,2.865857,0.2155633
-3.298176,3.528316,-0.1555393,-0.2339756,-0.5925535,-2.809572,0.06959786,-0.1105675,0.173042,2.880896,0.2168238
-3.302122,3.516215,-0.2122383,-0.225071,-0.6049079,-2.822928,0.06302457,-0.1896051,0.1470701,2.895772,0.2480964
-3.305937,3.503874,-0.2691965,-0.2166571,-0.6172201,-2.83602,0.05684528,-0.2678386,0.1212347,2.910483,0.2994441
-3.30968,3.491431,-0.3265493,-0.2083728,-0.6238471,-2.849253,0.1056679,-0.1891981,0.1038199,2.924184,0.2402919
-3.313359,3.47889,-0.3842881,-0.2004329,-0.6304297,-2.862055,0.1539058,-0.1112078,0.08692505,2.937511,0.2088304
-3.316979,3.466251,-0.4424002,-0.1927948,-0.6369603,-2.874256,0.2015634,-0.03386316,0.07054463,2.950294,0.2162199
-3.320545,3.453516,-0.500869,-0.1854164,-0.6434327,-2.885686,0.2486468,0.04283921,0.05466986,2.962359,0.2581651
-3.32406,3.440689,-0.5596741,-0.1782549,-0.6498427,-2.89618,0.2951627,0.1189024,0.03928929,2.973538,0.3206282
-3.327478,3.427615,-0.6183546,-0.1713838,-0.6593835,-2.905411,0.1936677,0.1057535,0.02448369,2.984221,0.2220145
-3.330798,3.414294,-0.6768998,-0.1646229,-0.6688867,-2.913934,0.09316378,0.09274343,0.009988368,2.994249,0.1318355
-3.334019,3.400723,-0.7353063,-0.1579148,-0.6783729,-2.922122,-0.00635887,0.07986975,-0.004204098,3.003985,0.0802327
-3.337141,3.386904,-0.7935776,-0.1512041,-0.6878607,-2.930344,-0.1049094,0.06713171,-0.01809299,3.01379,0.1258571
-3.34016,3.372839,-0.8517244,-0.1444371,-0.6973686,-2.938967,-0.202498,0.05452774,-0.03168641,3.024023,0.2120914
-3.342993,3.358569,-0.910382,-0.1377041,-0.7107848,-2.948159,-0.09781195,0.02559924,-0.02079194,3.035757,0.1032221
-3.34564,3.34409,-0.9695547,-0.1309,-0.7242221,-2.957711,0.005820239,-0.003061851,-0.01000263,3.047899,0.01197091
-3.3481,3.329402,-1.029239,-0.1240586,-0.7376597,-2.967242,0.1084109,-0.03145827,0.000682712,3.060075,0.112885
-3.350374,3.314507,-1.089423,-0.1172139,-0.7510769,-2.976373,0.209969,-0.05959252,0.01126151,3.071913,0.2185522
-3.35246,3.29941,-1.150087,-0.1104,-0.7644559,-2.984728,0.3105049,-0.08746679,0.02173659,3.083047,0.3233206
-3.354402,3.284066,-1.21068,-0.1035378,-0.7746904,-2.992057,0.2434537,-0.03206135,0.03523158,3.092454,0.2480703
-3.356204,3.268475,-1.271186,-0.09680218,-0.7848866,-2.998476,0.1770267,0.02267751,0.04881396,3.101012,0.1850284
-3.357869,3.252636,-1.331595,-0.09025098,-0.7950548,-3.00424,0.1112167,0.07675699,0.06248115,3.108974,0.1488781
-3.359402,3.236547,-1.391902,-0.08394079,-0.8052025,-3.0096,0.04601898,0.1301839,0.07623256,3.116583,0.1577244
-3.360809,3.220211,-1.452105,-0.07792804,-0.815336,-3.014805,-0.01857159,0.1829654,0.09006227,3.124083,0.2047741
-3.362454,3.203733,-1.512653,-0.07228917,-0.8261029,-3.020082,0.06198977,0.21974,-0.01681825,3.131863,0.2289351
-3.364336,3.187117,-1.573534,-0.06661066,-0.8368651,-3.025153,0.1412906,0.2562512,-0.1229315,3.13948,0.3173954
-3.366444,3.170366,-1.634734,-0.06050096,-0.8476282,-3.029731,0.2193498,0.292502,-0.2282852,3.14665,0.4310289
-3.36876,3.153486,-1.696228,-0.05356915,-0.8584027,-3.033534,0.2961809,0.3284968,-0.3328792,3.153102,0.5535719
-3.371258,3.136488,-1.757985,-0.04542448,-0.869208,-3.036288,0.3718002,0.3642408,-0.4367153,3.15858,0.6794313
-3.37337,3.119201,-1.819702,-0.03583156,-0.8830326,-3.037705,0.3575757,0.4028721,-0.3616429,3.163651,0.648808
-3.375071,3.101618,-1.881358,-0.02492628,-0.8969256,-3.037902,0.3443693,0.4406833,-0.2869392,3.16764,0.6285906
-3.376343,3.083732,-1.942933,-0.01297161,-0.9108868,-3.036943,0.3321623,0.4776781,-0.2126174,3.170632,0.6194468
-3.377174,3.06554,-2.004409,-0.0002277428,-0.9249105,-3.034892,0.3209359,0.5138625,-0.1386828,3.172701,0.6215203
-3.377553,3.047036,-2.06577,0.01304775,-0.9389868,-3.031806,0.3106748,0.5492438,-0.06515214,3.173912,0.6343756
-3.377779,3.028081,-2.128007,0.02491193,-0.9757816,-3.028242,0.7183816,1.21869,0.09689157,3.18167,1.417979
-3.377928,3.008708,-2.191044,0.03657851,-1.012619,-3.022676,1.124636,1.879924,0.2569565,3.187994,2.205663
-3.378116,2.98897,-2.254762,0.0476949,-1.049559,-3.013953,1.529415,2.53306,0.4149565,3.191827,2.987924
-3.3785,2.968931,-2.318994,0.05804181,-1.086742,-3.000905,1.932696,3.178225,0.5707661,3.192148,3.76327
-3.379264,2.948662,-2.383512,0.06758038,-1.124423,-2.98235,2.334441,3.815562,0.7242239,3.187994,4.531294
-3.380694,2.927868,-2.4469,0.0768094,-1.157522,-2.956238,2.325773,4.33427,0.7777316,3.175704,4.979958
-3.382746,2.906455,-2.508884,0.08606765,-1.19185,-2.923363,2.314888,4.844597,0.8553813,3.158159,5.436957
-3.385329,2.884312,-2.569189,0.09607206,-1.227688,-2.883956,2.304133,5.34551,0.9566119,3.135865,5.899035
-3.388293,2.861314,-2.627548,0.1075717,-1.265282,-2.838342,2.296038,5.836063,1.080589,3.109452,6.36389
-3.391432,2.837322,-2.683716,0.1213289,-1.304832,-2.786956,2.293259,6.315426,1.226143,3.07968,6.829866
-3.394178,2.811907,-2.73752,0.137316,-1.353668,-2.732982,2.178931,6.510645,1.365195,3.052943,7
-3.396114,2.784944,-2.789021,0.156606,-1.404467,-2.67492,2.036225,6.531171,1.482428,3.025268,7
-3.396983,2.756381,-2.838327,0.1794071,-1.457073,-2.613716,1.91817,6.537578,1.606456,2.997793,7
-3.396561,2.726192,-2.885584,0.2057768,-1.511283,-2.550246,1.824126,6.532119,1.733201,2.971544,7
-3.394663,2.694377,-2.93096,0.235643,-1.566864,-2.485291,1.752899,6.516973,1.85914,2.947417,7
-3.390693,2.661252,-2.974178,0.2753811,-1.596004,-2.406542,1.608077,6.483313,2.093021,2.900777,7
-3.38447,2.626889,-3.015551,0.3183591,-1.625947,-2.327796,1.498268,6.428725,2.329527,2.857217,7
-3.37589,2.591398,-3.055402,0.3636816,-1.656183,-2.24975,1.423384,6.356443,2.563126,2.817194,7
-3.364932,2.554929,-3.094053,0.4103451,-1.686266,-2.172826,1.382435,6.269869,2.788838,2.780836,7
-3.351652,2.517653,-3.131804,0.457296,-1.715847,-2.097173,1.373649,6.17246,3.002303,2.747979,7
-3.33654,2.480481,-3.167877,0.5125129,-1.711988,-2.008127,1.104668,5.983752,2.976234,2.68815,6.773739
-3.319592,2.443503,-3.202385,0.5663119,-1.706826,-1.921173,0.848497,5.78163,2.977432,2.631515,6.558376
-3.300836,2.406825,-3.235455,0.617967,-1.699975,-1.836889,0.6088507,5.566588,3.003654,2.577976,6.354489
-3.280334,2.370567,-3.267221,0.6665708,-1.691118,-1.755705,0.389,5.339493,3.052408,2.527191,6.162686
-3.258183,2.334859,-3.297822,0.7110727,-1.680034,-1.677892,0.1917401,5.101532,3.121056,2.478601,5.983593
-3.235314,2.300561,-3.327862,0.7553997,-1.639489,-1.593933,0.1881466,4.502861,2.900255,2.408148,5.359351
-3.212042,2.267638,-3.35723,0.7933623,-1.596865,-1.512787,0.1991496,3.911221,2.679099,2.33836,4.744985
-3.188627,2.236041,-3.385793,0.8247609,-1.552702,-1.433402,0.224116,3.327339,2.456417,2.268426,4.141907
-3.165286,2.205707,-3.413409,0.8495783,-1.507512,-1.354807,0.2623476,2.751842,2.23128,2.197698,3.552474
-3.142195,2.176572,-3.439937,0.8679364,-1.461771,-1.276133,0.313146,2.185263,2.00297,2.1257,2.980826
-3.119584,2.148626,-3.464719,0.8803229,-1.410568,-1.194852,0.2240401,1.556188,1.733338,2.047521,2.340166
-3.09754,2.12179,-3.487637,0.8866749,-1.359406,-1.112754,0.1491369,0.9317736,1.466144,1.967841,1.743566
-3.076151,2.095999,-3.508602,0.8873113,-1.308388,-1.029984,0.08818831,0.3124115,1.201038,1.886814,1.244134
-3.055505,2.071195,-3.527556,0.88253,-1.257566,-0.9467646,0.0409461,-0.3015862,0.9378372,1.804632,0.9859866
-3.035698,2.047337,-3.544471,0.8726146,-1.20695,-0.8633875,0.00715785,-0.9099845,0.6765237,1.721518,1.133934
-3.016362,2.024366,-3.559908,0.8582732,-1.163663,-0.7826114,0.04873038,-0.7990549,0.6298965,1.644149,1.018643
-2.997576,2.002269,-3.573877,0.8396258,-1.120663,-0.7018657,0.08923106,-0.6886753,0.5844941,1.566356,0.9076723
-2.979412,1.981034,-3.586382,0.8170711,-1.078048,-0.6209771,0.1286604,-0.5788553,0.5402898,1.488424,0.8022094
-2.961933,1.960647,-3.597421,0.791,-1.035904,-0.5397561,0.1670206,-0.4696046,0.4972583,1.410714,0.7040527
-2.945199,1.941095,-3.606989,0.7617958,-0.9943069,-0.4579994,0.2043146,-0.3609296,0.4553687,1.333695,0.6159345
-2.929298,1.922236,-3.614603,0.7302909,-0.9567017,-0.3766679,0.1071931,-0.3910634,0.386053,1.261143,0.5598731
-2.914282,1.904056,-3.620265,0.6963453,-0.9195237,-0.2950915,0.01181385,-0.4214885,0.3166203,1.190588,0.5272955
-2.900196,1.886548,-3.623985,0.660236,-0.8825868,-0.2137553,-0.08183442,-0.4521877,0.2470804,1.122748,0.5217465
-2.88708,1.86971,-3.625785,0.6222423,-0.8457005,-0.1331358,-0.173768,-0.4831494,0.1774504,1.058357,0.543247
-2.874971,1.853546,-3.625694,0.5826479,-0.8086737,-0.05370141,-0.2640038,-0.5143647,0.1077506,0.9981561,0.588115
-2.863627,1.837959,-3.624109,0.5433688,-0.7806082,0.0209926,-0.2615578,-0.5190306,0.1179811,0.9513356,0.5930639
-2.853075,1.822954,-3.62106,0.5027931,-0.7522502,0.09409817,-0.2592328,-0.5235916,0.1281579,0.9096899,0.5981423
-2.843342,1.808536,-3.61658,0.4608842,-0.723623,0.1656069,-0.2570265,-0.5280484,0.1382786,0.8737678,0.6033396
-2.834455,1.794711,-3.6107,0.4176064,-0.6947502,0.2355094,-0.2549353,-0.5324032,0.148344,0.8441194,0.6086469
-2.826444,1.781484,-3.603451,0.3729249,-0.6656556,0.3037955,-0.2529591,-0.5366578,0.1583527,0.8212563,0.6140565
-2.819484,1.768682,-3.594836,0.328128,-0.6428306,0.3685421,-0.2754639,-0.5341095,0.1116802,0.8103842,0.6112494
-2.813599,1.756313,-3.584893,0.282159,-0.619755,0.4315965,-0.2972546,-0.5318922,0.06522907,0.8062168,0.6128005
-2.808807,1.744382,-3.57366,0.2352426,-0.5963705,0.4928524,-0.318337,-0.5299981,0.01900227,0.808641,0.6185446
-2.805122,1.732899,-3.561179,0.1876034,-0.57262,0.5522078,-0.3387234,-0.5284234,-0.02699128,0.8173262,0.6282462
-2.802555,1.721875,-3.547493,0.1394662,-0.5484483,0.6095657,-0.358425,-0.5271636,-0.07274389,0.8317552,0.6416085
-2.800965,1.711242,-3.532908,0.09221444,-0.5290859,0.663511,-0.3084047,-0.4943113,-0.07895805,0.8536288,0.5879554
-2.800352,1.701005,-3.517457,0.04477894,-0.5093215,0.7156574,-0.2587706,-0.4619021,-0.08482018,0.8795334,0.5361998
-2.800714,1.691169,-3.501172,-0.00276443,-0.4892106,0.7662464,-0.2095272,-0.4299302,-0.09033296,0.909103,0.4867254
-2.802049,1.681736,-3.484075,-0.05034608,-0.4688046,0.8155195,-0.160675,-0.3983884,-0.09550459,0.9420109,0.4400579
-2.804352,1.672711,-3.466187,-0.09790206,-0.4481511,0.863717,-0.1122123,-0.3672704,-0.1003413,0.977973,0.3969225
-2.807793,1.663915,-3.447253,-0.1438039,-0.4344725,0.9095125,-0.1576136,-0.3608311,-0.1715084,1.018164,0.4294837
-2.812367,1.655359,-3.427297,-0.1893121,-0.4204943,0.954316,-0.2020287,-0.3545254,-0.2423069,1.059893,0.4745698
-2.818057,1.647056,-3.406345,-0.2341144,-0.4061186,0.9979494,-0.245474,-0.3483552,-0.3127333,1.102563,0.5285934
-2.824845,1.639023,-3.384429,-0.2778974,-0.391255,1.040239,-0.2879588,-0.3423224,-0.3827821,1.145602,0.5887504
-2.832704,1.631278,-3.361582,-0.3203467,-0.3758221,1.081016,-0.329496,-0.3364299,-0.4524493,1.18847,0.6530414
-2.841387,1.623845,-3.337916,-0.3608252,-0.3614225,1.119809,-0.3504796,-0.3155868,-0.4556238,1.230769,0.6557622
-2.850862,1.616739,-3.313466,-0.3996211,-0.3463959,1.156872,-0.3710462,-0.2947873,-0.4590422,1.272022,0.6597686
-2.861093,1.609972,-3.288267,-0.4366881,-0.3307526,1.192142,-0.3911979,-0.2740364,-0.4626973,1.311982,0.6649966
-2.872044,1.603559,-3.262358,-0.4719802,-0.3145058,1.225555,-0.4109366,-0.253339,-0.4665849,1.350431,0.6713799
-2.883678,1.597513,-3.235777,-0.5054514,-0.2976715,1.257044,-0.4302645,-0.2326993,-0.4707029,1.387173,0.6788503
-2.895967,1.591757,-3.208768,-0.5365852,-0.2834521,1.286106,-0.3794365,-0.2547406,-0.4759897,1.42209,0.6598719
-2.908871,1.586298,-3.181364,-0.5658571,-0.2687314,1.313416,-0.3293001,-0.2770775,-0.4808004,1.455154,0.6452748
-2.922353,1.581143,-3.153596,-0.5932456,-0.2535634,1.339179,-0.2798572,-0.2996973,-0.4851442,1.486484,0.6352192
-2.936372,1.576298,-3.125491,-0.6187317,-0.2379985,1.363598,-0.2311016,-0.3225878,-0.4890228,1.516203,0.629773
-2.950889,1.571769,-3.097071,-0.6422988,-0.2220834,1.38688,-0.1830354,-0.3457376,-0.4924439,1.544443,0.6289177
-2.965735,1.567616,-3.06824,-0.664067,-0.2045472,1.409367,-0.1744654,-0.3386825,-0.457316,1.57135,0.5952159
-2.980874,1.56384,-3.039016,-0.6840283,-0.1867431,1.430966,-0.1661537,-0.3316537,-0.422504,1.597007,0.5622374
-2.996273,1.560444,-3.009412,-0.7023208,-0.168707,1.451727,-0.1580951,-0.3246497,-0.3880083,1.621489,0.5300395
-3.011902,1.557429,-2.979442,-0.7190821,-0.1504706,1.471696,-0.1502836,-0.3176686,-0.3538314,1.644874,0.4986934
-3.027734,1.554795,-2.949121,-0.7344499,-0.1320616,1.490919,-0.1427186,-0.3107101,-0.3199657,1.667242,0.4682814
-3.044013,1.552519,-2.918497,-0.7485518,-0.1136464,1.509424,-0.1248893,-0.282712,-0.3770467,1.68867,0.4875322
-3.060706,1.550608,-2.887583,-0.7611376,-0.09508514,1.527318,-0.1067132,-0.2552702,-0.4335223,1.709115,0.514288
-3.077776,1.549069,-2.85639,-0.7719508,-0.07638483,1.544694,-0.08819573,-0.2283806,-0.4893957,1.728532,0.5472151
-3.095179,1.547909,-2.824927,-0.7807383,-0.05755831,1.561646,-0.06935406,-0.2020391,-0.5446734,1.746884,0.5850632
-3.112869,1.547136,-2.793198,-0.7872506,-0.03862518,1.578269,-0.0501985,-0.1762431,-0.5993558,1.76414,0.6267446
-3.130312,1.546851,-2.76102,-0.7913006,-0.01644383,1.594898,-0.09014209,-0.2109298,-0.4868779,1.780485,0.5382073
-3.14747,1.547045,-2.728399,-0.793293,0.005796522,1.611121,-0.1304897,-0.2446799,-0.3756319,1.795845,0.4668995
-3.164317,1.547712,-2.695347,-0.7937222,0.02808757,1.626768,-0.1712213,-0.277502,-0.2656114,1.810292,0.4205633
-3.180836,1.548849,-2.661877,-0.7930753,0.05043037,1.641667,-0.2123207,-0.3094069,-0.1568069,1.823892,0.4066954
-3.197021,1.550456,-2.628006,-0.7918322,0.07283153,1.655644,-0.2537736,-0.340407,-0.04921051,1.836698,0.4274338
-3.213507,1.552532,-2.593765,-0.7904699,0.09457366,1.668477,-0.2899597,-0.2610665,-0.1695438,1.848676,0.4254144
-3.230276,1.555086,-2.559183,-0.7884322,0.1163808,1.680055,-0.324895,-0.1830921,-0.2893134,1.859504,0.4719976
-3.2473,1.558126,-2.524291,-0.7851728,0.1382433,1.690226,-0.3586017,-0.1064723,-0.408512,1.868816,0.5539076
-3.264538,1.561663,-2.489121,-0.7801515,0.1601394,1.698842,-0.3911008,-0.03119811,-0.5271308,1.876258,0.6571149
-3.281936,1.56571,-2.453708,-0.7728358,0.1820312,1.705756,-0.4224165,0.04273688,-0.6451619,1.881492,0.7723315
-3.298928,1.570109,-2.418311,-0.7628802,0.2000102,1.71073,-0.3878218,0.004231237,-0.5704609,1.88377,0.6898183
-3.31547,1.57485,-2.382963,-0.7504812,0.2178939,1.714043,-0.3539997,-0.03370271,-0.4962116,1.883784,0.6104733
-3.331523,1.579923,-2.347693,-0.7359598,0.235662,1.715849,-0.3209371,-0.07106607,-0.4224185,1.881837,0.5352461
-3.347054,1.585317,-2.312527,-0.7196328,0.2533072,1.716304,-0.2886207,-0.1078609,-0.349079,1.878227,0.4656093
-3.362036,1.591025,-2.277488,-0.701813,0.2708322,1.715562,-0.2570417,-0.1440895,-0.2761976,1.873245,0.4038779
-3.376795,1.597176,-2.242381,-0.6826363,0.2901922,1.713758,-0.2778549,-0.01395497,-0.3634191,1.867397,0.4576807
-3.391293,1.603774,-2.207229,-0.6618928,0.3093938,1.710763,-0.2974971,0.1145423,-0.450487,1.860252,0.5518723
-3.405485,1.610819,-2.172058,-0.6392179,0.328378,1.706437,-0.3159964,0.2414104,-0.5373965,1.851582,0.6685265
-3.41932,1.618313,-2.136893,-0.6142561,0.3470742,1.700636,-0.3333823,0.366656,-0.6241454,1.841177,0.7969554
-3.432734,1.626256,-2.101763,-0.5866627,0.3653982,1.693211,-0.3496812,0.4902831,-0.7107317,1.82884,0.9315546
-3.445379,1.634418,-2.066755,-0.5572255,0.3753989,1.684341,-0.3598808,0.5208606,-0.6659935,1.813402,0.9188892
-3.457199,1.642784,-2.031907,-0.5251467,0.3849196,1.673667,-0.3691092,0.5515789,-0.6218244,1.795857,0.9094759
-3.468148,1.651341,-1.99726,-0.4906407,0.3939406,1.661109,-0.3773811,0.5824207,-0.578224,1.776289,0.9033124
-3.478182,1.660074,-1.962858,-0.453922,0.4024474,1.64659,-0.3847143,0.6133695,-0.535199,1.754784,0.9003695
-3.487261,1.668968,-1.928745,-0.4152054,0.410431,1.630034,-0.3911224,0.6444089,-0.49276,1.731433,0.9005842
-3.495554,1.677881,-1.895011,-0.3761624,0.4105634,1.612044,-0.3642817,0.734539,-0.5326497,1.705505,0.9777343
-3.503021,1.6868,-1.861694,-0.3353099,0.4101319,1.592039,-0.3373485,0.8231909,-0.5731821,1.677864,1.058293
-3.509622,1.695712,-1.828832,-0.2925625,0.4090794,1.570027,-0.3103521,0.9103752,-0.6143386,1.648612,1.141277
-3.515314,1.704603,-1.796463,-0.2478405,0.4073467,1.546009,-0.2833193,0.996101,-0.6561086,1.617869,1.225955
-3.520054,1.71346,-1.764626,-0.20107,0.4048719,1.519979,-0.2562821,1.080379,-0.6984758,1.585777,1.311781
-3.523479,1.722013,-1.733343,-0.1542352,0.3934919,1.493103,-0.2224896,1.186664,-0.6238282,1.551767,1.358983
-3.525561,1.730239,-1.702668,-0.1057599,0.3813934,1.464275,-0.1859824,1.291775,-0.551227,1.516822,1.41673
-3.526279,1.738116,-1.672655,-0.05602851,0.3686427,1.433495,-0.146855,1.395685,-0.4807107,1.481197,1.483437
-3.525623,1.745627,-1.643364,-0.005422328,0.3553163,1.400776,-0.1052031,1.498372,-0.4123225,1.445148,1.557626
-3.523588,1.752757,-1.614852,0.04568084,0.3414996,1.366149,-0.06112289,1.599822,-0.3461104,1.408926,1.637974
-3.52044,1.759531,-1.587006,0.09566028,0.3228548,1.33055,-0.0773033,1.662125,-0.3494951,1.372498,1.70023
-3.516173,1.76594,-1.559876,0.1456638,0.3038039,1.293015,-0.09299506,1.723911,-0.3524142,1.33619,1.762019
-3.510782,1.771974,-1.53351,0.1955849,0.2843291,1.253428,-0.1081912,1.785182,-0.3548877,1.300068,1.823328
-3.504269,1.777624,-1.507963,0.2453068,0.2644126,1.21168,-0.1228843,1.845942,-0.3569382,1.264222,1.884146
-3.496635,1.782878,-1.483289,0.2947024,0.2440369,1.167669,-0.1370682,1.906192,-0.3585835,1.228762,1.944463
-3.488013,1.78764,-1.459616,0.3428014,0.2201995,1.122092,-0.1282488,1.91399,-0.3720481,1.193772,1.954028
-3.478417,1.791898,-1.436988,0.3903929,0.1958862,1.074242,-0.1199778,1.921613,-0.3857214,1.159644,1.963612
-3.467863,1.795644,-1.41545,0.4374266,0.1710904,1.024161,-0.1122583,1.929065,-0.3995836,1.126729,1.973211
-3.456365,1.798865,-1.395044,0.4838537,0.1458061,0.9718921,-0.1050922,1.936352,-0.4136076,1.095421,1.98282
-3.443941,1.801553,-1.375814,0.5296268,0.1200284,0.9174793,-0.09848149,1.943481,-0.4277714,1.066152,1.992437
-3.430327,1.803484,-1.358148,0.5748824,0.09444059,0.8607367,0.03401815,1.96746,-0.3464805,1.039364,1.998025
-3.415582,1.804657,-1.342097,0.619054,0.06858207,0.8023504,0.1684183,1.990227,-0.2712108,1.015725,2.015669
-3.399771,1.805074,-1.327702,0.6618022,0.04268645,0.7428077,0.3044545,2.011793,-0.2019784,0.9957749,2.0447
-3.382966,1.804752,-1.314994,0.7028298,0.01698618,0.6826172,0.4418647,2.032193,-0.1387843,0.9799104,2.084302
-3.365245,1.803713,-1.303992,0.7418821,-0.008292735,0.6223078,0.5803897,2.05148,-0.08162699,0.968362,2.133561
-3.346985,1.802436,-1.294044,0.7796505,-0.02873647,0.5609631,0.4735485,2.070781,-0.1500213,0.9609164,2.129528
-3.328207,1.80092,-1.285133,0.8154089,-0.04871012,0.4997626,0.3651237,2.090832,-0.2131081,0.9576153,2.133145
-3.308923,1.799161,-1.277249,0.8493561,-0.06838477,0.4383926,0.2553562,2.111583,-0.2708774,0.9582642,2.144146
-3.289144,1.797156,-1.270391,0.8816575,-0.08792414,0.3765256,0.1444847,2.133002,-0.3233233,0.962716,2.162201
-3.268874,1.794897,-1.264569,0.9124438,-0.1074875,0.3138232,0.03274818,2.155066,-0.3704581,0.9708719,2.18692
-3.247838,1.792118,-1.260202,0.9412265,-0.1307381,0.2512091,0.07206347,2.166217,-0.2988695,0.9829069,2.187924
-3.226086,1.788819,-1.257327,0.968309,-0.1540647,0.187634,0.1140845,2.176913,-0.2297347,0.9982809,2.191973
-3.203676,1.785004,-1.255975,0.9934015,-0.1773653,0.1233174,0.1586727,2.187151,-0.1631433,1.016618,2.198959
-3.180672,1.780681,-1.256169,1.016234,-0.2005391,0.05850143,0.2056891,2.196932,-0.09917922,1.037482,2.208767
-3.157143,1.77586,-1.257929,1.036556,-0.2234886,-0.006550394,0.2549913,2.206263,-0.03792154,1.060395,2.221274
-3.133613,1.770856,-1.261095,1.055475,-0.2329336,-0.07649297,0.2312293,2.116082,-0.1048541,1.083576,2.131259
-3.110122,1.765671,-1.265634,1.071829,-0.2420923,-0.1463176,0.2047269,2.02716,-0.1704715,1.108528,2.044591
-3.086702,1.760308,-1.271513,1.085992,-0.2510175,-0.2159945,0.1755725,1.939486,-0.2346707,1.13536,1.961505
-3.063377,1.75477,-1.278704,1.098335,-0.2597604,-0.2855276,0.143854,1.853054,-0.2973538,1.164191,1.882265
-3.040163,1.749059,-1.287179,1.109218,-0.2683724,-0.3549514,0.1096629,1.767858,-0.3584402,1.195148,1.80716
-3.016444,1.743197,-1.29724,1.119005,-0.276651,-0.4244234,0.1670433,1.751631,-0.2249719,1.22835,1.773902
-2.992268,1.737189,-1.308902,1.12721,-0.2847384,-0.4935823,0.2283673,1.734864,-0.09495939,1.263053,1.752405
-2.967691,1.731049,-1.322173,1.133383,-0.2925251,-0.5621308,0.2934739,1.717562,0.03148954,1.298506,1.742738
-2.942778,1.724796,-1.337052,1.137098,-0.2999089,-0.6297419,0.3622,1.699746,0.1542828,1.333984,1.744743
-2.917605,1.718452,-1.353531,1.137954,-0.3068005,-0.696061,0.434383,1.681454,0.2733363,1.368783,1.758036
-2.892919,1.71208,-1.371289,1.135493,-0.3069829,-0.7627992,0.3991049,1.645982,0.1619863,1.401943,1.701405
-2.868764,1.705679,-1.390268,1.130227,-0.3066517,-0.8278434,0.3606777,1.611621,0.05268081,1.434145,1.652327
-2.845173,1.699251,-1.410411,1.122683,-0.3058639,-0.8912616,0.3192001,1.578338,-0.05449484,1.465714,1.611214
-2.822169,1.692801,-1.431665,1.113376,-0.3046669,-0.9531548,0.2747701,1.546109,-0.1594562,1.496974,1.57841
-2.799765,1.686333,-1.453983,1.102807,-0.3031018,-1.013655,0.2274877,1.514915,-0.2621333,1.528251,1.554166
-2.777495,1.679972,-1.477716,1.091298,-0.2983555,-1.073775,0.3062836,1.481755,-0.1983826,1.559788,1.526029
-2.755391,1.673732,-1.502838,1.078828,-0.2931982,-1.132308,0.3859948,1.448237,-0.1378067,1.591212,1.505116
-2.733486,1.667629,-1.529316,1.065247,-0.2875606,-1.188907,0.4665144,1.41438,-0.08040537,1.622018,1.4915
-2.711817,1.661684,-1.557107,1.050422,-0.2813827,-1.243219,0.5477463,1.380214,-0.02617146,1.651713,1.485161
-2.690421,1.655917,-1.586161,1.03424,-0.2746161,-1.294882,0.6295934,1.345773,0.02490512,1.679817,1.485972
-2.669288,1.650441,-1.616098,1.016488,-0.2658499,-1.343859,0.5746493,1.389649,0.07838935,1.705837,1.505819
-2.64845,1.64526,-1.646869,0.9970923,-0.2565664,-1.389961,0.5216866,1.432382,0.1333239,1.729743,1.530245
-2.627942,1.640378,-1.678427,0.9758666,-0.2468703,-1.433334,0.4707275,1.473972,0.1896274,1.751487,1.558889
-2.607805,1.635798,-1.710727,0.952619,-0.2368623,-1.474113,0.4217929,1.514423,0.2472152,1.771043,1.591383
-2.588081,1.631523,-1.74373,0.9271535,-0.2266413,-1.512412,0.3749081,1.553746,0.3060089,1.788399,1.627368
-2.569069,1.627408,-1.777423,0.8996059,-0.2187867,-1.547903,0.3455381,1.585151,0.2799437,1.803653,1.64635
-2.55081,1.62345,-1.811753,0.869827,-0.2108553,-1.581075,0.3154882,1.61625,0.2552894,1.816826,1.666425
-2.533344,1.619648,-1.84667,0.8379701,-0.2028793,-1.611961,0.2848103,1.647035,0.2320547,1.828052,1.68751
-2.516707,1.615997,-1.882121,0.804185,-0.194886,-1.640604,0.2535596,1.677496,0.2102397,1.837464,1.709528
-2.500932,1.612496,-1.918059,0.7686171,-0.1868988,-1.667047,0.2217895,1.707627,0.1898468,1.845196,1.732403
-2.486205,1.609048,-1.954598,0.731756,-0.1808503,-1.691114,0.2520976,1.729388,0.1159126,1.851497,1.751506
-2.472557,1.605655,-1.991674,0.6936336,-0.1747733,-1.712865,0.2795054,1.75137,0.04183346,1.856227,1.774027
-2.46001,1.602324,-2.029218,0.6546233,-0.1686139,-1.732133,0.3040382,1.773566,-0.03228813,1.859367,1.799727
-2.44858,1.59906,-2.067159,0.6151069,-0.1623199,-1.748777,0.3257231,1.795973,-0.1063496,1.860894,1.828366
-2.438274,1.595873,-2.10542,0.5754727,-0.1558422,-1.76268,0.3445981,1.818593,-0.1802462,1.860778,1.859709
-2.428693,1.593008,-2.143951,0.5353391,-0.1451335,-1.773966,0.3707605,1.828103,-0.114338,1.858657,1.868822
-2.419842,1.590467,-2.182699,0.495321,-0.1342606,-1.782252,0.3990494,1.836975,-0.0500136,1.854667,1.880484
-2.411729,1.588254,-2.221608,0.4552631,-0.1232939,-1.787414,0.4293842,1.845225,0.01266446,1.848598,1.894567
-2.404367,1.58637,-2.260618,0.4150223,-0.1123071,-1.789314,0.4616865,1.852872,0.07363467,1.840245,1.910945
-2.397771,1.584816,-2.299666,0.3744693,-0.101378,-1.787804,0.4958694,1.859939,0.1328355,1.829412,1.929483
-2.392145,1.583282,-2.338441,0.3351546,-0.0990043,-1.78293,0.4385608,1.892097,0.1193011,1.816858,1.945918
-2.387483,1.581759,-2.376873,0.2956118,-0.0967816,-1.774823,0.3812894,1.923904,0.1083389,1.801874,1.964313
-2.383774,1.580239,-2.414892,0.2560096,-0.09471807,-1.76368,0.3241466,1.955341,0.09991629,1.784679,1.984544
-2.381006,1.578714,-2.452438,0.2165025,-0.09281503,-1.749705,0.2672394,1.986399,0.09399807,1.765491,2.006498
-2.37916,1.577175,-2.48945,0.1772306,-0.09106776,-1.733107,0.2106562,2.017064,0.09054908,1.744524,2.030055
-2.378242,1.575529,-2.525897,0.1391263,-0.09357287,-1.714492,0.1529602,2.07062,0.08374652,1.722671,2.07795
-2.378229,1.573769,-2.561726,0.1015135,-0.09620164,-1.693717,0.09552614,2.123561,0.07954677,1.699481,2.127196
-2.379097,1.571891,-2.596889,0.06451676,-0.09893136,-1.670987,0.03845812,2.175887,0.07790968,1.675156,2.177621
-2.380817,1.569891,-2.631341,0.0282458,-0.1017363,-1.646514,-0.01813295,2.227602,0.07878974,1.649896,2.229069
-2.383358,1.567768,-2.665044,-0.007205393,-0.1045886,-1.620513,-0.07414865,2.278712,0.08214144,1.6239,2.281397
-2.386434,1.565781,-2.698353,-0.04212712,-0.1054007,-1.592912,0.02092167,2.267779,0.1575586,1.596951,2.273342
-2.390053,1.563928,-2.731248,-0.07637499,-0.1063336,-1.563661,0.1183646,2.257227,0.2278753,1.569133,2.271786
-2.394229,1.562205,-2.763702,-0.1101466,-0.1074932,-1.532413,0.2179226,2.247067,0.2930393,1.540122,2.276549
-2.398981,1.560609,-2.795676,-0.1436028,-0.1089911,-1.498804,0.3193406,2.237324,0.3530106,1.509607,2.287404
-2.404331,1.559135,-2.827121,-0.1768669,-0.1109481,-1.462459,0.4223647,2.228033,0.4077705,1.477288,2.304083
-2.410447,1.557487,-2.857471,-0.2098825,-0.1143213,-1.423164,0.3367678,2.270526,0.4254884,1.443093,2.334468
-2.4173,1.555645,-2.886666,-0.2426887,-0.1182487,-1.381078,0.2525623,2.311743,0.4471479,1.407216,2.368097
-2.42486,1.553593,-2.91466,-0.275209,-0.1226871,-1.33651,0.1699215,2.351687,0.4726312,1.370055,2.404722
-2.433095,1.551319,-2.941407,-0.3073923,-0.1275867,-1.28977,0.08901849,2.39037,0.5018209,1.332019,2.444099
-2.44197,1.548812,-2.966874,-0.3392142,-0.1328923,-1.241159,0.01001893,2.427814,0.5345882,1.293523,2.485994
-2.451843,1.546018,-2.991223,-0.3698052,-0.1438238,-1.192363,-0.005243306,2.481886,0.4345146,1.25665,2.51964
-2.462681,1.542931,-3.014386,-0.3995461,-0.1550123,-1.142089,-0.02571348,2.535253,0.3363176,1.219849,2.557592
-2.474441,1.53955,-3.036298,-0.4279465,-0.1663702,-1.090435,-0.05123411,2.587883,0.2402374,1.183159,2.599514
-2.487067,1.535876,-3.056895,-0.454529,-0.1778066,-1.037548,-0.08163884,2.639755,0.1465047,1.146611,2.645078
-2.50049,1.531915,-3.076118,-0.4788327,-0.1892303,-0.9836189,-0.1167449,2.690864,0.05534816,1.110223,2.693964
-2.513976,1.527986,-3.094492,-0.5006153,-0.1988486,-0.9283819,0.04616335,2.673819,0.175069,1.073336,2.679942
-2.527521,1.524077,-3.112024,-0.5200624,-0.2085906,-0.87187,0.2136043,2.657415,0.284786,1.036404,2.681154
-2.541134,1.52018,-3.128703,-0.5375195,-0.2186831,-0.8135812,0.3850015,2.641691,0.3843769,0.9993317,2.697129
-2.55483,1.516287,-3.144505,-0.5532639,-0.2293611,-0.752984,0.5597646,2.626725,0.4737514,0.9621291,2.727171
-2.568629,1.512391,-3.159383,-0.5675032,-0.2408757,-0.6895262,0.7373215,2.612632,0.5528585,0.9249473,2.770404
-2.58307,1.508058,-3.172163,-0.5807514,-0.2481012,-0.6206765,0.530306,2.641926,0.4476731,0.8854749,2.731558
-2.598032,1.503258,-3.182769,-0.5919794,-0.2561808,-0.5491797,0.319899,2.670114,0.354816,0.8471521,2.712515
-2.613387,1.497979,-3.191149,-0.6006755,-0.2647941,-0.4759487,0.1067962,2.697076,0.2743198,0.8108355,2.713094
-2.628995,1.492223,-3.197269,-0.606428,-0.2736044,-0.4019272,-0.1083093,2.722756,0.2061799,0.7772772,2.732699
-2.644712,1.486011,-3.201118,-0.6089267,-0.2822716,-0.3280873,-0.3247247,2.747161,0.1503611,0.7470677,2.770369
-2.659878,1.479713,-3.203418,-0.6079373,-0.2851265,-0.2533615,-0.3134969,2.61316,0.2214772,0.7176886,2.6412
-2.674449,1.473338,-3.204249,-0.6039343,-0.287506,-0.1799803,-0.2981105,2.481002,0.2920157,0.6926683,2.515853
-2.688393,1.466894,-3.203687,-0.5974582,-0.2894214,-0.1080164,-0.2786488,2.350682,0.3617674,0.6725984,2.394625
-2.701693,1.460392,-3.201805,-0.5890395,-0.2908858,-0.03748684,-0.2552115,2.222205,0.4305345,0.6580178,2.277869
-2.71434,1.453843,-3.198668,-0.5791957,-0.2919151,0.03164154,-0.2278993,2.095576,0.4981408,0.6493715,2.165992
-2.7267,1.447384,-3.194336,-0.5684116,-0.2922177,0.0995554,-0.1899408,1.982307,0.4396422,0.646834,2.03934
-2.738775,1.44102,-3.188835,-0.5566825,-0.2921656,0.1662779,-0.1536945,1.870276,0.3806877,0.6503111,1.914805
-2.750567,1.434755,-3.182187,-0.5439726,-0.291817,0.2319396,-0.1191662,1.759451,0.3213484,0.6594387,1.792521
-2.762072,1.428591,-3.17441,-0.5302325,-0.2912279,0.296667,-0.0863613,1.649808,0.2616864,0.6737741,1.672663
-2.773286,1.42253,-3.165519,-0.5154004,-0.290453,0.3605829,-0.05528221,1.541326,0.2017568,0.6928351,1.555457
-2.784011,1.416391,-3.155,-0.4992054,-0.2871031,0.4245892,-0.2011005,1.452442,0.21058,0.715479,1.481341
-2.794211,1.410193,-3.142889,-0.4820108,-0.283428,0.4873071,-0.3447714,1.363884,0.2238541,0.7417102,1.424485
-2.803857,1.403959,-3.129233,-0.4640267,-0.2792481,0.5481651,-0.4861926,1.275685,0.2414685,0.7705747,1.386384
-2.812927,1.397719,-3.114087,-0.4454901,-0.2744,0.6066054,-0.6252756,1.187884,0.2633199,0.8010786,1.367982
-2.821404,1.391508,-3.097518,-0.4266611,-0.2687411,0.6620824,-0.7619421,1.100535,0.2893028,0.8322347,1.369463
-2.829573,1.385698,-3.080319,-0.4074934,-0.2586363,0.7149632,-0.6544884,0.976925,0.2102479,0.8626215,1.194547
-2.837458,1.380283,-3.062548,-0.3881916,-0.2477784,0.7647626,-0.5491284,0.8539681,0.1315228,0.8927199,1.023768
-2.845073,1.375259,-3.044253,-0.368607,-0.2363369,0.8119527,-0.4458342,0.7316555,0.05315121,0.922493,0.8584364
-2.852426,1.370622,-3.025473,-0.3485685,-0.224463,0.8569994,-0.3445804,0.609981,-0.02484581,0.9520145,0.7010205
-2.859515,1.366367,-3.006236,-0.3278872,-0.2122946,0.9003627,-0.2453469,0.4889405,-0.1024467,0.9814438,0.5565548
-2.865957,1.362289,-2.985864,-0.3061569,-0.1979846,0.9428958,-0.310129,0.5737242,-0.02080192,1.010931,0.6525121
-2.871733,1.358401,-2.964396,-0.2838598,-0.1834248,0.9838698,-0.3732995,0.6581884,0.06023546,1.040298,0.7590736
-2.876829,1.354716,-2.941874,-0.2612898,-0.1685391,1.022974,-0.4348829,0.7423331,0.1406519,1.069183,0.8717595
-2.881234,1.351251,-2.918349,-0.2387497,-0.1532592,1.059905,-0.4949035,0.8261599,0.2204333,1.097218,0.9879578
-2.884944,1.348028,-2.893879,-0.2165531,-0.1375273,1.094371,-0.5533824,0.9096703,0.2995704,1.124036,1.106108
-2.888289,1.345295,-2.869068,-0.1946746,-0.1178338,1.126608,-0.4942653,0.79102,0.2495097,1.14936,0.9655392
-2.891296,1.34305,-2.84396,-0.1733841,-0.09772606,1.156368,-0.4359346,0.6733584,0.2001909,1.173371,0.8267569
-2.893987,1.34129,-2.818593,-0.1525742,-0.07728407,1.183957,-0.3783774,0.5566801,0.151604,1.196246,0.6899608
-2.896378,1.340012,-2.792999,-0.1321248,-0.05657783,1.209675,-0.3215787,0.4409777,0.1037448,1.218184,0.5555512
-2.898481,1.339215,-2.767205,-0.1119058,-0.03566904,1.233818,-0.2655289,0.3262453,0.05660488,1.239396,0.4244357
-2.899965,1.3388,-2.740812,-0.09164653,-0.01317884,1.256827,-0.3108966,0.3320001,0.1262575,1.260233,0.4720399
-2.900837,1.338777,-2.713852,-0.07179189,0.009500444,1.278343,-0.3553622,0.3380136,0.1954773,1.280393,0.5279648
-2.901111,1.339156,-2.686363,-0.05265366,0.03240286,1.29817,-0.3989452,0.3442838,0.2642579,1.299642,0.589509
-2.900807,1.33995,-2.658385,-0.03454404,0.05555443,1.31612,-0.4416552,0.3508085,0.3325955,1.317745,0.6547867
-2.89995,1.341173,-2.629962,-0.01777571,0.07897146,1.332009,-0.4835056,0.3575867,0.4004842,1.334467,0.7225188
-2.899037,1.343081,-2.601525,-0.00228018,0.1082131,1.346004,-0.4021615,0.3390821,0.3112838,1.350349,0.611235
-2.898098,1.345667,-2.573107,0.01189961,0.1376521,1.358084,-0.3221143,0.3205504,0.2225767,1.365094,0.5060144
-2.897153,1.348922,-2.544734,0.02514715,0.1672249,1.368621,-0.2433529,0.301989,0.134369,1.379029,0.4104546
-2.896215,1.352842,-2.516425,0.03784794,0.196881,1.377982,-0.1658569,0.2833962,0.0466675,1.39249,0.3316621
-2.895287,1.357424,-2.488191,0.05038863,0.2265785,1.386522,-0.08961253,0.2647719,-0.04052803,1.405816,0.2824484
-2.893737,1.362569,-2.459565,0.06333008,0.2593539,1.394699,-0.1843056,0.2013271,0.08300356,1.420021,0.2852907
-2.891574,1.368284,-2.43057,0.07592251,0.2921789,1.401981,-0.2774543,0.1388133,0.2059097,1.434114,0.3723557
-2.888819,1.374581,-2.401235,0.08758999,0.3250907,1.407958,-0.3690807,0.07722333,0.3281831,1.447654,0.4998882
-2.885505,1.381475,-2.371593,0.0977612,0.358112,1.412227,-0.4592041,0.01655161,0.44982,1.460201,0.6430244
-2.881676,1.388985,-2.341687,0.1058708,0.391245,1.414387,-0.547843,-0.04320522,0.5708239,1.471316,0.7923626
-2.8781,1.397256,-2.311976,0.1113463,0.4238572,1.41404,-0.489731,-0.06462421,0.452585,1.480393,0.6699596
-2.874816,1.406273,-2.282504,0.1147524,0.4564953,1.411458,-0.4318519,-0.08645207,0.335814,1.487874,0.5538421
-2.871854,1.416022,-2.253313,0.1166277,0.4891202,1.406904,-0.3742048,-0.1086728,0.2205029,1.494061,0.4477282
-2.869228,1.426494,-2.224436,0.1175058,0.5217108,1.400641,-0.3167902,-0.1312723,0.1066339,1.499261,0.3591089
-2.866946,1.437681,-2.195904,0.1179143,0.5542585,1.392929,-0.2596071,-0.1542376,-0.005807118,1.503781,0.3020245
-2.864313,1.449556,-2.167466,0.1183854,0.5919334,1.383831,-0.2859531,-0.14393,0.1064592,1.509764,0.3373701
-2.861342,1.462119,-2.139148,0.1183867,0.629553,1.373395,-0.3123793,-0.133146,0.217466,1.515443,0.4032371
-2.858056,1.475378,-2.110977,0.117401,0.6671007,1.361498,-0.3388809,-0.1218983,0.3272254,1.520685,0.4865963
-2.854487,1.489338,-2.082984,0.1149167,0.704551,1.348013,-0.3654573,-0.1102,0.4357442,1.525364,0.5792893
-2.850678,1.504008,-2.055203,0.1104284,0.7418661,1.332812,-0.3921085,-0.09806485,0.5430313,1.529362,0.6769407
-2.846986,1.51939,-2.027814,0.103501,0.776843,1.315927,-0.3683451,-0.07664596,0.5468974,1.531621,0.6638143
-2.843461,1.535478,-2.000851,0.0940733,0.8115997,1.297327,-0.3450605,-0.05515772,0.5506009,1.533167,0.6521277
-2.840151,1.552267,-1.974347,0.08212508,0.8461049,1.277122,-0.3222495,-0.03360694,0.5541474,1.534171,0.6419139
-2.837109,1.569751,-1.948333,0.06763558,0.8803284,1.255423,-0.2999058,-0.01200059,0.5575337,1.534809,0.6331913
-2.834384,1.587924,-1.922835,0.05058377,0.9142419,1.232338,-0.2780269,0.009654818,0.5607625,1.53527,0.6259767
-2.831947,1.606736,-1.897617,0.03129591,0.9437518,1.208409,-0.3536433,-0.06269084,0.6063245,1.533591,0.7047149
-2.829857,1.626187,-1.872711,0.009304531,0.9728365,1.18286,-0.4276873,-0.1348948,0.6518488,1.531553,0.7912142
-2.828174,1.646275,-1.848157,-0.01554886,1.001389,1.155322,-0.5001768,-0.2069399,0.6973352,1.528984,0.8827669
-2.826967,1.666998,-1.824001,-0.04341346,1.029286,1.125431,-0.5711296,-0.2788074,0.7427862,1.525748,0.9775755
-2.826304,1.688349,-1.800297,-0.07442714,1.056389,1.092819,-0.6405658,-0.3504771,0.7882104,1.521759,1.074446
-2.827229,1.709361,-1.777541,-0.101761,1.037448,1.064363,-0.4497975,0.4042874,0.2675245,1.489806,0.6613134
-2.829738,1.72999,-1.755757,-0.1302777,1.018095,1.03454,-0.2691263,1.147819,-0.256154,1.457314,1.206454
-2.833812,1.750237,-1.7349,-0.1585766,0.9987267,1.004417,-0.09849429,1.880207,-0.7825602,1.425291,2.038941
-2.839416,1.770147,-1.714865,-0.1852246,0.9797297,0.974979,0.06201159,2.60166,-1.31132,1.394547,2.91411
-2.846483,1.789806,-1.695483,-0.2087073,0.9614257,0.9470655,0.2121725,3.312498,-1.84195,1.365588,3.796109
-2.853503,1.809103,-1.675593,-0.2258851,0.9295622,0.9233888,-0.02829076,3.517915,-1.795534,1.32957,3.949743
-2.860251,1.828022,-1.655233,-0.2387818,0.8982259,0.9006774,-0.255086,3.729659,-1.733338,1.294236,4.120666
-2.866506,1.846551,-1.634483,-0.2476515,0.867151,0.877936,-0.4670426,3.947208,-1.656568,1.258592,4.306135
-2.872057,1.864671,-1.613467,-0.2528822,0.8360927,0.8542081,-0.6630597,4.170085,-1.566583,1.22175,4.503715
-2.876711,1.882367,-1.592351,-0.2549973,0.8048222,0.8285967,-0.8421264,4.397849,-1.464903,1.182935,4.711284
-2.880962,1.899597,-1.572468,-0.2546226,0.7893582,0.7974932,-0.6951628,4.170425,-1.381813,1.150615,4.448045
-2.884892,1.916321,-1.553877,-0.2519625,0.7734011,0.7637519,-0.549446,3.942331,-1.30855,1.115774,4.190008
-2.888577,1.932505,-1.536615,-0.2473402,0.7569653,0.7277442,-0.4057676,3.713495,-1.244881,1.078789,3.937566
-2.892086,1.94813,-1.520701,-0.2409903,0.7400929,0.6898711,-0.2648449,3.483898,-1.190519,1.040065,3.691209
-2.895482,1.963184,-1.506135,-0.2330636,0.7228459,0.650551,-0.1273258,3.25356,-1.145143,1.000021,3.451553
-2.898946,1.977629,-1.492844,-0.2238259,0.7016461,0.6110351,-0.01281862,2.99594,-1.141503,0.9569583,3.206065
-2.902507,1.991475,-1.48079,-0.2129821,0.6802068,0.5708726,0.0947102,2.738374,-1.144455,0.9132022,2.969418
-2.906179,2.004735,-1.469934,-0.2003481,0.6585752,0.530398,0.1949696,2.481029,-1.153522,0.8690124,2.743015
-2.909962,2.017429,-1.460232,-0.1856963,0.6367866,0.4899267,0.2877328,2.224088,-1.168265,0.8246263,2.528676
-2.913839,2.029578,-1.45164,-0.168764,0.614861,0.4497564,0.3728325,1.967749,-1.188264,0.7802667,2.328736
-2.917189,2.041368,-1.443832,-0.1488044,0.5968726,0.4092423,0.3454185,1.769107,-1.034278,0.7388362,2.078168
-2.919965,2.05279,-1.436809,-0.1265847,0.5787261,0.3692127,0.3195927,1.571949,-0.8822543,0.6980441,1.83072
-2.922128,2.063834,-1.430572,-0.1024763,0.5604254,0.3295925,0.2953002,1.37624,-0.7322171,0.6581863,1.586626
-2.92365,2.074494,-1.425122,-0.07684915,0.5419934,0.2903381,0.272491,1.181957,-0.5841795,0.6196442,1.346306
-2.924505,2.084764,-1.42046,-0.05006927,0.5234683,0.2514328,0.2511183,0.989076,-0.4381547,0.582876,1.110546
-2.924741,2.094693,-1.416538,-0.02234487,0.5058904,0.2126672,0.2339406,0.9627984,-0.3990513,0.5492283,1.068153
-2.924344,2.10428,-1.413353,0.00606134,0.4882692,0.1741969,0.217475,0.9367344,-0.3601431,0.5184478,1.026874
-2.923301,2.11352,-1.410904,0.03503522,0.4706082,0.1359656,0.201711,0.9108789,-0.3214346,0.4911071,0.9867664
-2.921601,2.122414,-1.409189,0.06446201,0.4529133,0.09792264,0.1866392,0.8852258,-0.2829362,0.4678404,0.9478987
-2.919239,2.13096,-1.408207,0.09422658,0.4351926,0.06002195,0.1722508,0.8597695,-0.2446593,0.4493038,0.9103473
-2.916518,2.139076,-1.408155,0.1240633,0.4165615,0.02241189,0.2312719,0.8489349,-0.3221115,0.4352212,0.9369808
-2.913433,2.146767,-1.409015,0.1544079,0.3979097,-0.01488778,0.2883239,0.8381935,-0.3998201,0.4270779,0.9723966
-2.909973,2.15404,-1.410769,0.1855511,0.3792257,-0.05167908,0.3434227,0.8275598,-0.4777472,0.4253376,1.0154
-2.90612,2.160901,-1.413395,0.2177871,0.3604892,-0.08777579,0.3965846,0.8170511,-0.55586,0.4302189,1.064816
-2.901849,2.167359,-1.416867,0.2514129,0.3416696,-0.1230033,0.4478275,0.8066871,-0.6341228,0.4416745,1.119556
-2.896566,2.173435,-1.420857,0.2862482,0.320318,-0.1567347,0.3921645,0.7843032,-0.5066152,0.4572827,1.012711
-2.890244,2.179114,-1.425358,0.322332,0.2988686,-0.1896513,0.3388166,0.7616997,-0.3797076,0.4787358,0.9160573
-2.882863,2.184389,-1.430369,0.359246,0.2773629,-0.22194,0.2877485,0.7388633,-0.2534311,0.505218,0.8324335
-2.874413,2.189253,-1.435891,0.3965716,0.2558536,-0.2537717,0.2389276,0.7157862,-0.1278136,0.5358453,0.7653579
-2.864894,2.193706,-1.441929,0.4338904,0.2344003,-0.2853029,0.1923206,0.6924652,-0.002884141,0.5697386,0.7186818
-2.854619,2.197913,-1.448574,0.4723924,0.2206908,-0.3180436,0.1700891,0.6811255,-0.001520667,0.6107461,0.7020432
-2.843595,2.201875,-1.455823,0.5104547,0.2070914,-0.3506848,0.1480999,0.6698947,9.033053E-05,0.6530166,0.6860703
-2.831829,2.205593,-1.463676,0.5480794,0.1935887,-0.383292,0.1263516,0.6587715,0.00194478,0.6962618,0.6707819
-2.81933,2.209068,-1.472134,0.5852673,0.1801699,-0.4159303,0.1048487,0.6477532,0.00403464,0.7402682,0.6561965
-2.806103,2.212302,-1.481197,0.622017,0.1668226,-0.4486642,0.08358926,0.636839,0.00635629,0.7848786,0.6423329
-2.792064,2.215315,-1.491142,0.6595881,0.1598958,-0.4827015,0.1470921,0.611823,0.03860132,0.8328408,0.6304392
-2.777229,2.218112,-1.501964,0.6965972,0.1530978,-0.516638,0.2103644,0.5870137,0.06968109,0.8806823,0.6274502
-2.761616,2.2207,-1.513657,0.7329459,0.1464929,-0.550208,0.2733923,0.5624128,0.09960888,0.9281156,0.6332247
-2.745245,2.223089,-1.526208,0.7685425,0.1401414,-0.5831451,0.3361686,0.5380219,0.1283968,0.9748618,0.6472733
-2.728134,2.225292,-1.539599,0.8033017,0.1340988,-0.6151834,0.3986824,0.5138464,0.1560659,1.02065,0.6688365
-2.710506,2.227322,-1.553811,0.8371093,0.1282217,-0.6460252,0.4618353,0.4752578,0.1203174,1.065149,0.6735266
-2.692377,2.229193,-1.56881,0.8701722,0.1227033,-0.6754253,0.5241088,0.4375362,0.08398336,1.108357,0.6878816
-2.673759,2.230917,-1.58456,0.9026647,0.1175392,-0.7031115,0.5855026,0.4006768,0.04708379,1.150211,0.7110359
-2.65466,2.232506,-1.601017,0.9347633,0.1127181,-0.7288175,0.6460198,0.3646766,0.009643849,1.190656,0.7419054
-2.635086,2.233975,-1.618135,0.9666455,0.1082208,-0.752282,0.7056653,0.3295323,-0.02831719,1.229652,0.7793311
-2.614527,2.235601,-1.635448,0.9996688,0.1111258,-0.7740248,0.6225759,0.3762401,0.06984323,1.269173,0.7307773
-2.592992,2.237383,-1.652917,1.032259,0.1143335,-0.7935335,0.540989,0.4211488,0.1682041,1.307029,0.7059236
-2.570498,2.239322,-1.670509,1.064021,0.1178503,-0.8111539,0.4608956,0.4642778,0.2667308,1.34313,0.7064871
-2.547071,2.241424,-1.688202,1.09456,0.1216885,-0.827221,0.3822912,0.5056501,0.3653953,1.377376,0.7316709
-2.522741,2.243697,-1.705979,1.12348,0.1258621,-0.8420581,0.3051715,0.5452913,0.4641629,1.409649,0.7784083
-2.498152,2.246002,-1.724225,1.150186,0.1289269,-0.8558746,0.3634179,0.4844365,0.3929716,1.439469,0.7219266
-2.473336,2.248342,-1.742908,1.175197,0.1322911,-0.8684922,0.4208643,0.4251583,0.3215002,1.467265,0.679153
-2.448319,2.250722,-1.761993,1.198823,0.1359116,-0.8796356,0.477504,0.3674374,0.2497692,1.49312,0.6522308
-2.423121,2.253149,-1.781438,1.221374,0.1397455,-0.8890395,0.5333347,0.3112561,0.1778024,1.517127,0.6426041
-2.397756,2.255627,-1.8012,1.243162,0.143748,-0.8964466,0.5883573,0.2565975,0.1056251,1.539393,0.65051
-2.371881,2.258468,-1.82068,1.2654,0.1563801,-0.9018272,0.460638,0.2247088,0.1363326,1.561725,0.530347
-2.345505,2.261663,-1.839844,1.287049,0.1691131,-0.9053819,0.3344201,0.192513,0.1670071,1.58266,0.4204634
-2.318639,2.265207,-1.858668,1.307989,0.1819367,-0.9076209,0.2096896,0.1600181,0.1976369,1.602408,0.3295996
-2.291299,2.269095,-1.877139,1.328096,0.194849,-0.9090488,0.08643258,0.127233,0.2282226,1.621165,0.275217
-2.263503,2.273328,-1.895254,1.347246,0.2078532,-0.9101651,-0.03536545,0.0941666,0.258753,1.639108,0.277617
-2.235389,2.277709,-1.913426,1.364835,0.2154498,-0.9114302,-0.02688034,0.1128424,0.2440106,1.655264,0.2701798
-2.206976,2.282239,-1.931658,1.381427,0.2231291,-0.9128436,-0.0186041,0.1313643,0.2293846,1.670751,0.2649905
-2.178285,2.286919,-1.949952,1.397079,0.2308818,-0.9143751,-0.01053087,0.1497329,0.2148771,1.685591,0.2621126
-2.14933,2.291749,-1.968309,1.41185,0.2386996,-0.9159952,-0.002662374,0.1679488,0.2004874,1.699807,0.2615513
-2.12013,2.296731,-1.986732,1.425797,0.2465748,-0.9176744,0.005008002,0.1860128,0.1862164,1.713424,0.2632535
-2.090661,2.301812,-2.005359,1.438882,0.2530186,-0.9193711,0.06371117,0.1486775,0.196343,1.726164,0.2543908
-2.060939,2.306993,-2.024184,1.451167,0.2595142,-0.9208474,0.121999,0.1119314,0.2061485,1.738158,0.2644043
-2.030982,2.312279,-2.043197,1.462612,0.2660617,-0.9218555,0.1798748,0.07576779,0.2156408,1.74924,0.2908551
-2.000807,2.317671,-2.06238,1.473183,0.2726591,-0.9221509,0.2373386,0.04017982,0.2248193,1.759253,0.3293748
-1.970431,2.323174,-2.081713,1.482841,0.2793012,-0.9214917,0.2943942,0.005161257,0.2336968,1.768042,0.3759106
-1.939962,2.328958,-2.100755,1.491774,0.2911685,-0.9195916,0.2089435,0.02707633,0.2018757,1.776462,0.291795
-1.909416,2.335017,-2.119491,1.499869,0.3030605,-0.9168265,0.1242423,0.04856189,0.170509,1.783823,0.2164895
-1.878806,2.34135,-2.137913,1.507257,0.3149714,-0.9135519,0.04028661,0.06962349,0.1395894,1.790421,0.1611075
-1.848143,2.347955,-2.15602,1.514068,0.3268994,-0.9101195,-0.04293317,0.09026684,0.1091111,1.796547,0.147975
-1.817433,2.354831,-2.173819,1.520431,0.3388447,-0.9068778,-0.1254173,0.110498,0.07906836,1.802485,0.1849084
-1.786514,2.36187,-2.191847,1.526413,0.3487702,-0.9041983,-0.02913566,0.08022356,0.1134675,1.808079,0.1419844
-1.755397,2.369071,-2.210104,1.53193,0.3587103,-0.9016482,0.0663066,0.05048797,0.1473865,1.813409,0.1693174
-1.724096,2.376437,-2.228582,1.536843,0.3686622,-0.8988299,0.1609135,0.02128421,0.1808319,1.818157,0.2429945
-1.692626,2.383973,-2.247265,1.541012,0.3786205,-0.8953501,0.2546916,-0.007394982,0.213811,1.822011,0.3326224
-1.661004,2.391683,-2.266129,1.544299,0.3885742,-0.8908196,0.3476502,-0.03555634,0.2463297,1.824666,0.4275549
-1.62964,2.399555,-2.284581,1.546541,0.3962216,-0.8849199,0.2473323,-0.006205514,0.1424058,1.825339,0.2854667
-1.598544,2.407581,-2.302605,1.548201,0.4038429,-0.8780117,0.1479476,0.02307752,0.03965216,1.825081,0.1548979
-1.567715,2.415758,-2.320192,1.549704,0.4114441,-0.8705012,0.04948444,0.05229043,-0.06194072,1.824456,0.09497185
-1.537145,2.424084,-2.337339,1.551467,0.4190358,-0.8627906,-0.04806108,0.08143158,-0.1623867,1.82402,0.1879106
-1.506818,2.432564,-2.354052,1.553904,0.4266279,-0.8552794,-0.1446998,0.1104993,-0.2616989,1.824317,0.3188016
-1.476176,2.44126,-2.370834,1.557473,0.4370697,-0.848268,-0.07014036,0.07305814,-0.1768899,1.826557,0.2038313
-1.445208,2.450168,-2.387693,1.561782,0.4475071,-0.8415523,0.003660665,0.03584805,-0.09298547,1.829655,0.09972353
-1.41391,2.459285,-2.404624,1.566481,0.4579357,-0.8348246,0.0767188,-0.001131977,-0.009975633,1.833167,0.07737292
-1.382282,2.468614,-2.42162,1.571222,0.4683528,-0.8277798,0.149036,-0.03788277,0.07215028,1.836658,0.1698602
-1.350332,2.478157,-2.438667,1.575658,0.4787546,-0.8201157,0.2206178,-0.07440492,0.1534012,1.839699,0.2788194
-1.318379,2.487912,-2.455375,1.579437,0.4885319,-0.811559,0.1635448,-0.0549191,0.1263396,1.841715,0.2138334
-1.286436,2.497877,-2.471734,1.582687,0.4982891,-0.8023246,0.107023,-0.03568335,0.09955131,1.843072,0.1504583
-1.254508,2.508049,-2.487736,1.585519,0.508032,-0.7926472,0.0510463,-0.01669472,0.07303104,1.843978,0.09065302
-1.222603,2.518428,-2.503378,1.588047,0.5177689,-0.7827587,-0.004388086,0.002049874,0.04677718,1.844638,0.04702725
-1.190722,2.529014,-2.518664,1.590383,0.5275089,-0.7728884,-0.05928891,0.02055354,0.02078667,1.845248,0.06610377
-1.158719,2.53974,-2.533969,1.592618,0.5354118,-0.7633496,0.0109144,0.01102941,0.0475908,1.845481,0.05005653
-1.126598,2.550607,-2.549292,1.59466,0.5433148,-0.7537668,0.08042847,0.00166094,0.07410886,1.845615,0.1093783
-1.094365,2.561616,-2.564624,1.5964,0.5512048,-0.7438557,0.1492611,-0.007554062,0.1003436,1.845438,0.1800133
-1.06203,2.572769,-2.57995,1.597728,0.5590674,-0.7333352,0.2174206,-0.01661777,0.1262989,1.844742,0.2519906
-1.029603,2.584069,-2.59525,1.598538,0.566885,-0.721927,0.2849146,-0.02553216,0.1519795,1.843329,0.3239228
-0.9973311,2.595571,-2.61007,1.598724,0.5766323,-0.7092332,0.2106915,-0.0224587,0.09968608,1.841584,0.2341637
-0.9652215,2.60727,-2.624395,1.598493,0.5863242,-0.6956717,0.1372299,-0.01934441,0.0478956,1.83927,0.1466296
-0.9332766,2.619164,-2.638216,1.598059,0.5959778,-0.6815453,0.06451907,-0.01619004,-0.003397077,1.836705,0.06660607
-0.9014952,2.631252,-2.65153,1.597635,0.6056131,-0.6671534,-0.00744721,-0.01299701,-0.05419552,1.834202,0.05622755
-0.8698713,2.643533,-2.664339,1.59743,0.6152508,-0.6527923,-0.07867945,-0.009765997,-0.1045054,1.832062,0.1311762
-0.8382027,2.655964,-2.676805,1.597649,0.6219272,-0.6389585,-0.1000028,-0.01289702,-0.09099535,1.82963,0.1358199
-0.8064826,2.668545,-2.688935,1.598234,0.6286302,-0.6255304,-0.1211238,-0.01593159,-0.07761937,1.82779,0.1447396
-0.7747051,2.681276,-2.700742,1.59913,0.6353639,-0.6125937,-0.1420404,-0.01887128,-0.06437644,1.82652,0.1570857
-0.7428655,2.694159,-2.712236,1.600282,0.6421322,-0.600233,-0.1627555,-0.02171763,-0.05126546,1.825792,0.172015
-0.7109603,2.707194,-2.723432,1.601638,0.6489384,-0.5885326,-0.1832741,-0.02447237,-0.03828575,1.825578,0.1888229
-0.6789292,2.720407,-2.734537,1.603158,0.6578482,-0.5774644,-0.1382952,-0.04198918,-0.004699009,1.826567,0.1446055
