x,y,z,vx,vy,vz,ax,ay,az,v_mag,a_mag
-13.48972,5.82,21.38633,0,0,0,0,0,0,0,0
-13.48972,5.816076,21.38633,0,-0.1962,0,0,0,0,0.1962,0
-13.48987,5.812235,21.38624,-1.894646E-09,-0.1904559,-1.623907E-09,0.0396466,-0.04373747,-0.04972751,0.1904559,0.07718579
-13.49015,5.808475,21.38607,0.0002007684,-0.1847119,0.0001602123,0.07891195,-0.08703727,-0.09896189,0.1847121,0.15361
-13.49057,5.804801,21.38582,0.0008006762,-0.1789693,0.0006398377,0.1177618,-0.1299045,-0.1477089,0.1789722,0.2292617
-13.4911,5.801213,21.38551,0.001995286,-0.1732309,0.001597413,0.1562232,-0.1723429,-0.1959639,0.1732498,0.304154
-13.49174,5.797825,21.38529,0.004035176,-0.161568,0.003238247,0.1512055,-0.2456006,-0.245911,0.1616508,0.3790185
-13.49245,5.794639,21.38518,0.007087708,-0.1499235,0.005520163,0.1461409,-0.3179513,-0.2955973,0.1501924,0.4580697
-13.49322,5.791656,21.38518,0.01135241,-0.1383083,0.008432798,0.1410179,-0.3894043,-0.3450187,0.1390294,0.5390359
-13.49402,5.788879,21.38531,0.01702586,-0.1267364,0.01197019,0.1358481,-0.4599688,-0.3942032,0.1284339,0.6208238
-13.49481,5.78631,21.38557,0.02430177,-0.115226,0.01613158,0.130621,-0.5296543,-0.4431375,0.1188606,0.7028274
-13.49544,5.783947,21.38611,0.03332094,-0.1049413,0.02089573,0.07317398,-0.5597356,-0.4478018,0.1120696,0.7205448
-13.49586,5.781787,21.38693,0.04413335,-0.09475271,0.026073,0.01608491,-0.5889984,-0.4530963,0.1077294,0.743286
-13.49605,5.77983,21.38803,0.05675339,-0.08467197,0.03145467,-0.04062789,-0.617454,-0.4590146,0.1066756,0.7704508
-13.49598,5.778073,21.38941,0.07120018,-0.07471111,0.0368359,-0.09695337,-0.6451136,-0.4655453,0.1095815,0.8014386
-13.49562,5.776517,21.39107,0.08749781,-0.06488313,0.04201583,-0.1528724,-0.6719906,-0.4726692,0.1167519,0.8356779
-13.49478,5.775133,21.39282,0.1054212,-0.05808352,0.04673082,-0.1597793,-0.6727467,-0.4307932,0.1291166,0.814678
-13.49343,5.773912,21.39467,0.1250321,-0.05143118,0.05104985,-0.167187,-0.6733007,-0.3894436,0.144514,0.7955827
-13.49155,5.772851,21.39661,0.1461671,-0.04492375,0.05496517,-0.1750676,-0.673654,-0.3485956,0.1624935,0.7784454
-13.4891,5.771943,21.39863,0.168665,-0.03855547,0.05846491,-0.1834077,-0.6738067,-0.3082642,0.1826268,0.7633352
-13.48607,5.771184,21.40072,0.1923671,-0.03231753,0.06153313,-0.1922015,-0.673759,-0.2684646,0.2045382,0.7503105
-13.48245,5.770579,21.40287,0.2171898,-0.02560848,0.06415747,-0.1996562,-0.635069,-0.2347883,0.2279109,0.7059042
-13.47822,5.770126,21.40506,0.2429348,-0.01900865,0.06629293,-0.2072629,-0.5965995,-0.2016972,0.2525339,0.6630012
-13.47337,5.76982,21.40729,0.2694754,-0.01250653,0.06789985,-0.2150135,-0.5583503,-0.1691874,0.2781794,0.6217799
-13.46789,5.769659,21.40955,0.2966869,-0.006089658,0.06893541,-0.2229239,-0.5203184,-0.137257,0.3046511,0.5824653
-13.46176,5.769642,21.41182,0.3244471,0.0002550036,0.06935378,-0.2309715,-0.4825057,-0.1058921,0.3317769,0.545319
-13.45508,5.769735,21.41395,0.3525278,0.005768359,0.06910754,-0.1909973,-0.4775562,-0.1079944,0.359284,0.5255499
-13.44784,5.769938,21.41595,0.3810488,0.01121868,0.06836118,-0.1513717,-0.4727515,-0.1097118,0.3872949,0.5083739
-13.44003,5.770245,21.41779,0.4100209,0.01660317,0.06727623,-0.1121482,-0.4680817,-0.1110549,0.4158352,0.4939746
-13.43164,5.770657,21.41948,0.4394516,0.02192016,0.06601258,-0.07328022,-0.4635497,-0.1120356,0.4449224,0.4824938
-13.42266,5.77117,21.42103,0.4693457,0.02716883,0.06472865,-0.03478398,-0.4591501,-0.1126388,0.4745664,0.4740425
-13.41301,5.771702,21.42248,0.499018,0.02779436,0.06360719,-0.01670121,-0.42854,-0.08919719,0.5038227,0.4380429
-13.40268,5.77225,21.42384,0.5290502,0.0283663,0.06267586,0.001069859,-0.3982619,-0.06584297,0.5335045,0.4036694
-13.39167,5.772814,21.42513,0.559348,0.02889855,0.06198901,0.01849573,-0.3683071,-0.04258198,0.5635139,0.3712216
-13.37998,5.773392,21.42634,0.5898173,0.02940512,0.06159874,0.03560257,-0.3386752,-0.01941941,0.5937538,0.3410946
-13.3676,5.773984,21.4275,0.6203644,0.02989998,0.06155518,0.05242331,-0.3093664,0.003653694,0.6241274,0.3137979
-13.35459,5.774583,21.42865,0.6508644,0.03019147,0.06190643,0.05559723,-0.3150437,0.008072994,0.6544986,0.3200137
-13.34097,5.77519,21.42981,0.6813291,0.03048727,0.06266825,0.05871994,-0.3206696,0.01246656,0.684884,0.3262399
-13.32672,5.775803,21.43099,0.7117385,0.03078949,0.06385604,0.06176249,-0.3262405,0.01683393,0.7152603,0.3324618
-13.31185,5.776423,21.43219,0.7420726,0.03110023,0.06548473,0.06477033,-0.3317629,0.02117364,0.7456053,0.3386889
-13.29636,5.777051,21.43342,0.7723112,0.03142138,0.06756896,0.06772231,-0.3372345,0.02547015,0.7758979,0.3449089
-13.28025,5.777672,21.43464,0.8023329,0.03109519,0.07011436,0.08728609,-0.3140258,0.03200218,0.8059908,0.3274984
-13.26351,5.778288,21.43586,0.8322116,0.03078327,0.07318982,0.1065911,-0.291047,0.03863125,0.8359907,0.3123498
-13.24616,5.778898,21.43708,0.8619193,0.03048718,0.07685632,0.1256541,-0.2682985,0.045357,0.865876,0.299717
-13.22819,5.779504,21.43832,0.8914279,0.03020793,0.08117403,0.1444549,-0.2457754,0.05218204,0.8956257,0.2898202
-13.20961,5.780106,21.4396,0.920709,0.02994585,0.08620231,0.1630111,-0.2234777,0.05908268,0.9252204,0.2828528
-13.19046,5.780706,21.44108,0.9497357,0.02970952,0.09199998,0.135239,-0.2128601,0.05610644,0.9546437,0.2583542
-13.17074,5.781305,21.44278,0.9785164,0.02948909,0.09845076,0.1077385,-0.2023701,0.05306299,0.9838986,0.235323
-13.15045,5.7819,21.44469,1.007062,0.02928458,0.1054399,0.0805292,-0.1920092,0.04996059,1.01299,0.2141228
-13.12961,5.782493,21.44684,1.035384,0.02909689,0.1128538,0.05357849,-0.1817722,0.04680844,1.041923,0.1951994
-13.10821,5.783083,21.44922,1.063495,0.02892751,0.1205804,0.02691445,-0.1716609,0.0435962,1.0707,0.1791437
-13.08628,5.783608,21.45182,1.090968,0.02568819,0.1283838,0.003397625,-0.1561139,0.03898508,1.098796,0.1609439
-13.06382,5.784069,21.45465,1.118266,0.0224697,0.1362858,-0.01985301,-0.1407443,0.03435637,1.126765,0.1462309
-13.04083,5.784467,21.45771,1.14541,0.01927304,0.1441877,-0.04289047,-0.1255434,0.02970414,1.15461,0.1359524
-13.01731,5.784801,21.46099,1.172419,0.01609921,0.1519921,-0.06566519,-0.1105154,0.02502238,1.182339,0.1309644
-12.99327,5.785073,21.46449,1.199314,0.01294899,0.1596025,-0.08823121,-0.09565233,0.02031882,1.209957,0.1317079
-12.96865,5.785258,21.46806,1.22593,0.008479208,0.1668727,-0.06784508,-0.08435859,0.03147231,1.237264,0.1127379
-12.94348,5.785356,21.47171,1.252414,0.00403583,0.1739274,-0.04768161,-0.0731512,0.04254163,1.264439,0.09713097
-12.91774,5.785368,21.47544,1.278723,-0.000378415,0.1808379,-0.02775188,-0.06202719,0.05350234,1.291447,0.08648723
-12.89145,5.785295,21.47923,1.30482,-0.004760817,0.1876745,-0.008039438,-0.05098817,0.06437144,1.318256,0.08251127
-12.86461,5.785136,21.4831,1.330662,-0.009108692,0.1945067,0.0114433,-0.04003194,0.07515825,1.344833,0.08592012
-12.83724,5.784868,21.4871,1.356041,-0.01469208,0.2013577,0.01225263,-0.02649451,0.07955761,1.370988,0.08474372
-12.80936,5.784491,21.49123,1.381113,-0.02023703,0.2082687,0.01301576,-0.01309042,0.08390985,1.396874,0.08591642
-12.78097,5.784005,21.49549,1.405863,-0.02574198,0.2152359,0.01374078,0.0001807277,0.08822194,1.422477,0.0892858
-12.75207,5.783412,21.49989,1.430277,-0.03120548,0.2222554,0.01446404,0.01331576,0.09249768,1.447778,0.09456395
-12.72268,5.782712,21.50442,1.454339,-0.03662618,0.2293237,0.0151495,0.02632006,0.09674335,1.472764,0.1013979
-12.69273,5.781937,21.50913,1.478158,-0.04102412,0.2364736,0.003073239,0.01240232,0.1239797,1.497516,0.1246364
-12.66223,5.781086,21.51403,1.501503,-0.04536402,0.2436295,-0.008862851,-0.001404898,0.1509343,1.521816,0.1512008
-12.6312,5.780163,21.51912,1.524268,-0.04963306,0.2507521,-0.02065396,-0.01510369,0.1776344,1.545553,0.1794678
-12.59964,5.77917,21.52439,1.546349,-0.05381951,0.2578021,-0.03228723,-0.02869605,0.2040742,1.568616,0.2085958
-12.56757,5.77811,21.52983,1.567643,-0.05791292,0.2647406,-0.04374907,-0.04218367,0.230238,1.590894,0.2381239
-12.53514,5.776983,21.53546,1.588125,-0.06115337,0.271555,-0.05757925,-0.03608255,0.2176407,1.612335,0.2280018
-12.50235,5.775794,21.54126,1.607762,-0.06429875,0.2781616,-0.07129597,-0.03011581,0.2051494,1.632914,0.2192632
-12.46922,5.774541,21.54722,1.626604,-0.06735598,0.2845045,-0.08489215,-0.02428238,0.1927784,1.65267,0.2120373
-12.43577,5.773228,21.55334,1.644697,-0.07033148,0.2905284,-0.09837573,-0.01857946,0.1805108,1.67164,0.206415
-12.40201,5.771855,21.55962,1.66209,-0.07323147,0.2961785,-0.111733,-0.01300623,0.1683538,1.689861,0.2024757
-12.36789,5.770427,21.56599,1.67881,-0.076305,0.3013946,-0.1114176,0.001066591,0.1760173,1.707356,0.2083197
-12.33342,5.768946,21.57245,1.694851,-0.07930973,0.3061798,-0.1111393,0.01501564,0.1835639,1.72411,0.2151118
-12.29862,5.767411,21.57899,1.710183,-0.08224672,0.3105308,-0.1109129,0.02884253,0.1910168,1.740092,0.2227577
-12.26351,5.765827,21.5856,1.724779,-0.08511737,0.3144445,-0.1107587,0.04254963,0.1983617,1.755273,0.2311392
-12.22809,5.764193,21.59227,1.738611,-0.08792345,0.3179176,-0.1106538,0.056136,0.2056033,1.769624,0.2401421
-12.19239,5.762496,21.59898,1.751598,-0.09145096,0.3209354,-0.1050483,0.05126446,0.2156558,1.783104,0.245297
-12.15641,5.760739,21.60574,1.763758,-0.09491834,0.3235354,-0.09945284,0.04648579,0.2255989,1.795696,0.2508917
-12.12018,5.758922,21.61252,1.775049,-0.09832802,0.3257411,-0.09391233,0.04180079,0.2354522,1.807367,0.2569136
-12.08371,5.757047,21.61932,1.785435,-0.1016829,0.3275756,-0.08839719,0.03720698,0.2452069,1.818082,0.2632961
-12.04702,5.755115,21.62613,1.794876,-0.1049862,0.3290617,-0.08290093,0.03270291,0.25488,1.827808,0.2700109
-12.0102,5.75312,21.63298,1.803344,-0.108014,0.3302234,-0.07982382,0.002265104,0.2462068,1.836509,0.2588335
-11.97326,5.751063,21.63986,1.810861,-0.1110009,0.3310764,-0.07662901,-0.02786674,0.2376559,1.844221,0.2512546
-11.93622,5.748946,21.64675,1.817459,-0.1139531,0.3316372,-0.07330532,-0.05769511,0.2292459,1.85098,0.2474997
-11.8991,5.746767,21.65366,1.823171,-0.1168764,0.3319217,-0.06986953,-0.08722194,0.2209586,1.856821,0.2476128
-11.86191,5.744527,21.66058,1.828028,-0.1197762,0.3319453,-0.06632488,-0.1164497,0.2128093,1.861778,0.2514901
-11.82464,5.742353,21.66753,1.832186,-0.1167489,0.3317161,-0.07463188,-0.1347437,0.2133666,1.865628,0.2631561
-11.78731,5.740245,21.67452,1.835494,-0.1137062,0.3311995,-0.08278715,-0.1528891,0.2139152,1.868599,0.2756601
-11.74994,5.738204,21.68152,1.837952,-0.1106523,0.3303619,-0.09077814,-0.1708865,0.2144633,1.870682,0.2888552
-11.71254,5.736229,21.68854,1.83956,-0.1075915,0.3291694,-0.09861462,-0.1887368,0.215011,1.871873,0.3026155
-11.67513,5.734322,21.69557,1.840315,-0.1045284,0.3275884,-0.1063134,-0.206441,0.2155509,1.872164,0.3168322
-11.63771,5.732543,21.70247,1.840217,-0.09801914,0.3255504,-0.07915928,-0.2066937,0.2181666,1.87136,0.3107815
-11.60031,5.730894,21.70925,1.839244,-0.09151573,0.3231892,-0.05230229,-0.2068228,0.2208724,1.869664,0.3070762
-11.56294,5.729372,21.7159,1.837385,-0.08502118,0.3206102,-0.02571725,-0.20683,0.223661,1.867085,0.3057193
-11.52561,5.727978,21.72242,1.834631,-0.07853828,0.3179174,0.0005976114,-0.2067178,0.2265343,1.863629,0.3066763
-11.48836,5.726711,21.72881,1.83097,-0.07206991,0.3152137,0.02662105,-0.2064892,0.2294915,1.859302,0.3098594
-11.45127,5.725652,21.73516,1.826282,-0.0608695,0.3125397,0.01311284,-0.1784461,0.2006807,1.853832,0.2688637
-11.41438,5.724799,21.74148,1.820771,-0.04968886,0.3099019,-0.0002847229,-0.1507308,0.1721,1.847624,0.2287756
-11.37769,5.72415,21.74777,1.814555,-0.03852843,0.3072452,-0.01356559,-0.1233385,0.1437787,1.840786,0.1899177
-11.34121,5.723706,21.75402,1.807749,-0.02738744,0.3045162,-0.02672965,-0.09626631,0.1156877,1.833422,0.1528572
-11.30496,5.723465,21.76023,1.800468,-0.01626426,0.3016628,-0.03976385,-0.06950887,0.08786031,1.825637,0.1188784
-11.26892,5.723433,21.76641,1.792827,-0.005139053,0.2986339,-0.05031958,-0.06901858,0.06700408,1.817536,0.1085595
-11.2331,5.723609,21.77256,1.784912,0.005972579,0.2953856,-0.06075015,-0.06856836,0.04635074,1.809198,0.1026674
-11.19751,5.723994,21.77867,1.776809,0.01707266,0.2918744,-0.07104048,-0.0681567,0.02588009,1.800704,0.1017932
-11.16214,5.724586,21.78473,1.768605,0.02816333,0.2880577,-0.08120085,-0.067783,0.005608614,1.792131,0.1059225
-11.127,5.725387,21.79074,1.760382,0.03924662,0.2838931,-0.09123227,-0.06744687,-0.01447863,1.783558,0.1143767
-11.09202,5.726396,21.79661,1.75224,0.04995696,0.2793474,-0.07212789,-0.06992084,-0.01397649,1.775071,0.1014234
-11.0572,5.727615,21.80232,1.744162,0.06066276,0.2744918,-0.05320786,-0.07237418,-0.01345417,1.766671,0.09083013
-11.02254,5.729042,21.80787,1.736147,0.07136549,0.2694044,-0.03447876,-0.07480744,-0.01290291,1.758374,0.08337519
-10.98803,5.730678,21.81327,1.728194,0.0820667,0.2641624,-0.01593007,-0.07722042,-0.0123328,1.750191,0.07980513
-10.95369,5.732523,21.8185,1.720299,0.09276821,0.2588422,0.002439021,-0.07961304,-0.01173082,1.742135,0.0805096
-10.91952,5.734609,21.82355,1.712382,0.1055645,0.2534658,0.03173821,-0.0834158,-0.01794089,1.734255,0.09103508
-10.88553,5.736937,21.8284,1.704549,0.118367,0.2482089,0.06074546,-0.0871876,-0.02404692,1.726588,0.1089493
-10.85172,5.739506,21.83307,1.696826,0.1311795,0.2431923,0.0894482,-0.09092969,-0.03005846,1.719177,0.1310446
-10.81807,5.742319,21.83757,1.689237,0.1440053,0.2385358,0.1178805,-0.09464025,-0.03596098,1.712062,0.1553891
-10.78459,5.745377,21.8419,1.681807,0.1568468,0.2343578,0.1460447,-0.09831993,-0.04176468,1.705285,0.1809424
-10.75135,5.748617,21.84618,1.674647,0.1671583,0.2308197,0.1456461,-0.1300456,-0.0707896,1.698724,0.2076916
-10.71834,5.752042,21.85043,1.667788,0.1774891,0.227865,0.1452983,-0.1613689,-0.09962624,1.692614,0.2389078
-10.68556,5.755652,21.85466,1.661349,0.187841,0.2254889,0.1449845,-0.1922955,-0.1282703,1.687072,0.2728577
-10.65298,5.75945,21.85888,1.655448,0.1982147,0.2236882,0.1446883,-0.2228304,-0.1567125,1.682211,0.3084589
-10.62061,5.763436,21.86309,1.650202,0.2086103,0.2224604,0.1444499,-0.2529763,-0.1849554,1.678146,0.3450671
-10.58818,5.767532,21.8672,1.645865,0.2125393,0.2218254,0.171002,-0.2453452,-0.1386233,1.674291,0.3296245
-10.55568,5.771738,21.87123,1.642084,0.2164807,0.2218551,0.1970843,-0.2380201,-0.0926134,1.671085,0.3226035
-10.52311,5.776052,21.87518,1.638672,0.2204271,0.2226565,0.2226859,-0.2309962,-0.04689917,1.668356,0.324265
-10.49046,5.780478,21.87909,1.635442,0.2243711,0.2243339,0.247829,-0.224268,-0.001499442,1.665935,0.3342418
-10.45774,5.785013,21.88297,1.632209,0.2283045,0.2269889,0.2725417,-0.2178303,0.04358879,1.663656,0.3516092
-10.42503,5.789617,21.88685,1.628803,0.2312523,0.2307022,0.2939932,-0.2069642,0.05828461,1.661235,0.3642297
-10.39234,5.794292,21.89075,1.625148,0.2341708,0.2355718,0.31515,-0.1962683,0.07297616,1.658745,0.3783732
-10.35969,5.799037,21.89471,1.621181,0.2370491,0.2416814,0.3360143,-0.1857415,0.08767831,1.656149,0.3938185
-10.32707,5.803853,21.89875,1.616839,0.2398746,0.2491132,0.3565898,-0.1753823,0.1023804,1.65341,0.410362
-10.2945,5.808741,21.90289,1.612061,0.2426328,0.2579482,0.37691,-0.1651884,0.1170783,1.6505,0.4278501
-10.26199,5.813633,21.90724,1.606875,0.2419671,0.2680928,0.3800155,-0.1786568,0.1304165,1.646957,0.4397027
-10.22956,5.81853,21.91183,1.601139,0.2412045,0.2797036,0.3830774,-0.1920831,0.1435388,1.643186,0.4519376
-10.19721,5.823427,21.91668,1.594796,0.2403299,0.2927881,0.3860983,-0.2054648,0.1564269,1.639163,0.4644965
-10.16495,5.828324,21.92183,1.587784,0.2393277,0.3073531,0.3890706,-0.2188015,0.1690919,1.634871,0.477328
-10.13282,5.833218,21.92731,1.580046,0.2381814,0.3234041,0.3920169,-0.2320927,0.1815556,1.630296,0.4904148
-10.10101,5.838176,21.93328,1.57125,0.2430841,0.3415051,0.348343,-0.2292509,0.1290696,1.626205,0.4365292
-10.06954,5.843193,21.93976,1.56185,0.2478326,0.3609648,0.305321,-0.2261873,0.07693174,1.622064,0.3876856
-10.03843,5.848262,21.94679,1.552049,0.2524439,0.3816078,0.262966,-0.2229043,0.02515074,1.618088,0.3456443
-10.00766,5.85338,21.95437,1.542053,0.2569389,0.4032625,0.2212466,-0.2194058,-0.02628462,1.614486,0.3126976
-9.977251,5.858544,21.96252,1.532066,0.2613415,0.4257612,0.1801782,-0.2156933,-0.07737962,1.611458,0.2915054
-9.947021,5.863637,21.97119,1.522684,0.2576051,0.448007,0.1569771,-0.2080447,-0.07556064,1.607992,0.2713555
-9.916968,5.868656,21.98036,1.513499,0.253812,0.4708184,0.1340119,-0.2004439,-0.07382748,1.605232,0.2521655
-9.887091,5.873599,21.99007,1.504506,0.2499706,0.494109,0.1112656,-0.1928915,-0.07217748,1.603174,0.234087
-9.857384,5.878466,22.00031,1.4957,0.2460898,0.5177932,0.08877447,-0.1853823,-0.07063227,1.601808,0.2173394
-9.827845,5.883255,22.01109,1.487077,0.2421789,0.5417866,0.06652824,-0.1779188,-0.06916847,1.601119,0.2021519
-9.798531,5.887959,22.02246,1.478615,0.238684,0.5660604,0.02996399,-0.1763312,-0.08761003,1.601155,0.1991633
-9.769438,5.892577,22.03443,1.470405,0.2351891,0.5904203,-0.006174547,-0.1746859,-0.105989,1.601874,0.2044186
-9.740559,5.89711,22.04699,1.462519,0.2317143,0.6147283,-0.0418913,-0.1729827,-0.1243213,1.603292,0.2171029
-9.711886,5.901561,22.06014,1.455028,0.2282788,0.6388482,-0.07716861,-0.1712241,-0.1425865,1.605411,0.2358042
-9.683412,5.905931,22.07386,1.448005,0.224901,0.6626457,-0.112019,-0.169411,-0.1607919,1.608228,0.2590413
-9.655001,5.910263,22.08805,1.441508,0.2220037,0.6860373,-0.106391,-0.1772491,-0.1386067,1.611794,0.2488937
-9.626646,5.914557,22.10267,1.435466,0.219173,0.7089953,-0.1009336,-0.1849782,-0.1166063,1.615943,0.2408351
-9.59834,5.918814,22.11774,1.42979,0.2164019,0.7315413,-0.09561325,-0.1925976,-0.09479142,1.620581,0.2349918
-9.570079,5.923034,22.13324,1.424395,0.2136841,0.753696,-0.0904677,-0.2001112,-0.07315096,1.625613,0.2314735
-9.541858,5.927218,22.14917,1.419195,0.2110137,0.7754793,-0.08544708,-0.2075168,-0.0516987,1.630953,0.230298
-9.51371,5.931418,22.16554,1.414027,0.2113485,0.7972386,-0.09006763,-0.1997497,-0.04105854,1.636988,0.2229303
-9.485632,5.935634,22.18234,1.408935,0.2117263,0.8186233,-0.09467752,-0.1920373,-0.03056141,1.643189,0.216278
-9.457625,5.939867,22.19958,1.403882,0.2121474,0.8396162,-0.09925333,-0.1843777,-0.0202112,1.649499,0.2103684
-9.42969,5.944118,22.21723,1.398831,0.2126117,0.8602002,-0.1038341,-0.1767747,-0.009978577,1.655861,0.2052568
-9.401827,5.948389,22.23529,1.393748,0.2131194,0.8803578,-0.1084106,-0.1692259,0.0001161603,1.662222,0.2009733
-9.374057,5.952614,22.25374,1.388674,0.2107361,0.8997775,-0.1103678,-0.1568959,0.002918483,1.66806,0.1918486
-9.346382,5.956797,22.27256,1.383528,0.208395,0.9187534,-0.1123071,-0.1446826,0.005655088,1.673823,0.1832428
-9.318804,5.960936,22.29176,1.378305,0.2060954,0.9372787,-0.1142429,-0.1325856,0.008328076,1.679492,0.1752134
-9.291324,5.965034,22.31131,1.373002,0.2038366,0.9553471,-0.1161609,-0.1206033,0.01094131,1.685044,0.1678041
-9.263943,5.96909,22.33121,1.367614,0.2016182,0.9729519,-0.1180687,-0.1087354,0.01349644,1.690459,0.1610768
-9.23664,5.973099,22.3515,1.362156,0.1986887,0.9900205,-0.1380621,-0.09479429,0.02361267,1.695608,0.1691291
-9.209418,5.977062,22.37217,1.356576,0.1958031,1.006545,-0.1578741,-0.08097431,0.03355552,1.70052,0.1805742
-9.18228,5.98098,22.39321,1.350839,0.1929647,1.02245,-0.1775275,-0.06727486,0.0433169,1.705112,0.1947262
-9.15523,5.984855,22.4146,1.344914,0.1901766,1.03766,-0.1969946,-0.05369515,0.05291332,1.709298,0.2109262
-9.128272,5.988688,22.43633,1.338768,0.1874406,1.052102,-0.2162903,-0.04023348,0.06232795,1.712995,0.2286591
-9.101381,5.992442,22.45839,1.33245,0.1823453,1.065532,-0.2336781,-0.05408932,0.0826595,1.715818,0.2537
-9.074567,5.996118,22.48076,1.325802,0.1773001,1.078062,-0.2508773,-0.06774104,0.1028483,1.717965,0.2794746
-9.047838,5.999718,22.50343,1.318744,0.1723011,1.089623,-0.2678965,-0.08119057,0.1228791,1.719317,0.3057119
-9.021204,6.003244,22.52637,1.311198,0.1673434,1.100148,-0.2847592,-0.09444091,0.1427466,1.719758,0.3322401
-8.994678,6.006698,22.54956,1.303087,0.1624201,1.109569,-0.3014387,-0.1074936,0.1624609,1.719174,0.3589062
-8.968345,6.010119,22.57286,1.294186,0.1608028,1.11796,-0.2841116,-0.1041788,0.1588336,1.717733,0.3417612
-8.942213,6.013507,22.59625,1.28465,0.1592007,1.125226,-0.2669824,-0.1008639,0.155245,1.715169,0.3248909
-8.916297,6.016861,22.61971,1.274496,0.1576039,1.131433,-0.2499981,-0.09754667,0.1517184,1.711526,0.3082741
-8.890607,6.02018,22.64322,1.263741,0.156004,1.136647,-0.2332098,-0.09423064,0.1482451,1.706852,0.2919638
-8.865155,6.023463,22.66677,1.2524,0.1543934,1.140932,-0.216593,-0.09091455,0.1448265,1.701196,0.2759578
-8.83999,6.026697,22.69038,1.24051,0.1524027,1.144346,-0.2182914,-0.08500261,0.128897,1.694586,0.2673781
-8.815119,6.029882,22.71404,1.228115,0.1503937,1.146893,-0.2199758,-0.07922418,0.1130958,1.687083,0.2597239
-8.79055,6.033019,22.73774,1.215277,0.1483654,1.148565,-0.2216387,-0.07357658,0.09742098,1.678724,0.2530377
-8.766292,6.036105,22.76146,1.20206,0.1463172,1.149357,-0.2232653,-0.0680571,0.08187542,1.669544,0.2473515
-8.742349,6.03914,22.78517,1.188523,0.1442486,1.149264,-0.2248715,-0.06266472,0.06646343,1.659579,0.2427168
-8.718719,6.042127,22.80898,1.174794,0.141253,1.148285,-0.2580244,-0.08632971,0.05734663,1.648834,0.2780612
-8.695408,6.045064,22.83286,1.160846,0.1382339,1.146286,-0.2907957,-0.1098416,0.0483813,1.637267,0.3145919
-8.672419,6.047954,22.8568,1.146716,0.1351861,1.143132,-0.3231817,-0.1331999,0.03956461,1.624803,0.3517869
-8.649755,6.050798,22.88077,1.132444,0.1321026,1.138692,-0.3552102,-0.1564068,0.03090538,1.611366,0.3893488
-8.627419,6.053597,22.90473,1.118069,0.1289737,1.132836,-0.3868934,-0.1794628,0.02241004,1.596881,0.427078
-8.605354,6.056323,22.92834,1.103593,0.1262898,1.125415,-0.3182592,-0.1837136,0.03131496,1.581273,0.3688093
-8.583559,6.058969,22.95158,1.089025,0.1235455,1.116709,-0.2503347,-0.1878216,0.04041042,1.564697,0.3155588
-8.562037,6.061533,22.97443,1.074336,0.1207432,1.106979,-0.1831344,-0.1917903,0.04967618,1.547314,0.2697952
-8.540789,6.064012,22.99687,1.059494,0.1178892,1.096485,-0.116631,-0.1956182,0.0591225,1.529282,0.2352971
-8.519815,6.066401,23.0189,1.044465,0.1149925,1.085481,-0.05083262,-0.1993084,0.06874093,1.510761,0.2168712
-8.499695,6.068535,23.04099,1.029577,0.1074685,1.074488,-0.2013235,0.002069063,-0.1600558,1.492013,0.2572028
-8.480408,6.070422,23.0631,1.015293,0.09994544,1.062736,-0.3496968,0.2009934,-0.3873631,1.473165,0.5592284
-8.461916,6.072083,23.08524,1.002421,0.09244098,1.049719,-0.4959526,0.3974887,-0.6131855,1.454408,0.8831549
-8.444163,6.073548,23.10736,0.9917523,0.08494289,1.034923,-0.6401597,0.5915691,-0.8375223,1.435916,1.208802
-8.427077,6.074855,23.12946,0.9840556,0.07739444,1.017821,-0.7823344,0.7832477,-1.06038,1.417856,1.532948
-8.409916,6.076276,23.15111,0.9798875,0.07821555,0.9969552,-0.754434,0.7540994,-1.007485,1.400077,1.467263
-8.392609,6.077793,23.17226,0.9793497,0.07874705,0.9731543,-0.726602,0.7254737,-0.955107,1.38288,1.402317
-8.375089,6.079388,23.19285,0.9822003,0.07888968,0.9464803,-0.698827,0.6973587,-0.903249,1.366297,1.338106
-8.357295,6.081042,23.21281,0.9882022,0.07855992,0.9170036,-0.6711066,0.6697422,-0.8519161,1.350411,1.274637
-8.339172,6.082735,23.23208,0.9971238,0.07768907,0.8848013,-0.6434545,0.6426156,-0.8010951,1.335352,1.211917
-8.320638,6.084391,23.25053,1.008629,0.07437237,0.8502882,-0.5994756,0.6744981,-0.7563909,1.321308,1.177474
-8.301644,6.085987,23.26812,1.022565,0.07043453,0.8132944,-0.5548626,0.7059175,-0.7131149,1.308453,1.146615
-8.282156,6.087499,23.28479,1.0387,0.06585868,0.7739582,-0.5096477,0.7368558,-0.671243,1.297015,1.119493
-8.262136,6.088907,23.30049,1.056808,0.06064077,0.7324197,-0.4638707,0.7672929,-0.630776,1.287229,1.096263
-8.241557,6.090189,23.3152,1.076668,0.05478843,0.6888208,-0.4175743,0.7972153,-0.5916952,1.279332,1.077044
-8.220345,6.09129,23.32888,1.09779,0.04587425,0.6438926,-0.3745922,0.8033925,-0.5276153,1.273517,1.03157
-8.198481,6.092192,23.34151,1.12015,0.0363875,0.597214,-0.330946,0.8095239,-0.4649145,1.269931,0.9904543
-8.175952,6.092877,23.35305,1.143475,0.02637406,0.5489314,-0.2866887,0.8155968,-0.4035886,1.268682,0.9540819
-8.152751,6.09333,23.36346,1.167501,0.01588851,0.4991963,-0.2418545,0.8215967,-0.3436404,1.269845,0.9228237
-8.128876,6.09354,23.37272,1.191974,0.00499256,0.4481654,-0.1964529,0.8275148,-0.2850506,1.273452,0.8970107
-8.104406,6.093503,23.38079,1.216758,-0.005432203,0.3957708,-0.1498842,0.8259761,-0.2523684,1.279517,0.8765795
-8.079348,6.093214,23.38766,1.241604,-0.01614074,0.3424098,-0.1032811,0.8243184,-0.2207701,1.288055,0.8595971
-8.053706,6.092666,23.3933,1.266384,-0.02706987,0.2882568,-0.05662918,0.8225335,-0.1902527,1.299058,0.8461467
-8.027492,6.091856,23.39771,1.290972,-0.03815459,0.2334879,-0.009967397,0.8206271,-0.1607936,1.312471,0.8362911
-8.000716,6.090783,23.40086,1.315252,-0.04932888,0.1782811,0.03670158,0.8185958,-0.1323887,1.328196,0.8300439
-7.973547,6.089396,23.40283,1.338811,-0.06289388,0.1235258,0.07155105,0.7820846,-0.1431146,1.345968,0.7982842
-7.945993,6.0877,23.40361,1.362036,-0.0764474,0.06866598,0.1057787,0.7458541,-0.154328,1.365906,0.7689634
-7.91806,6.085695,23.4032,1.385006,-0.08995619,0.01384807,0.1393695,0.7099069,-0.1660097,1.387993,0.7422607
-7.889754,6.083385,23.40161,1.407806,-0.1033884,-0.04078544,0.172344,0.6742415,-0.1781448,1.412186,0.718359
-7.861077,6.080775,23.39885,1.430523,-0.116714,-0.09509566,0.2047105,0.6388565,-0.190723,1.438423,0.6974377
-7.831851,6.077919,23.3948,1.45365,-0.1266583,-0.1499024,0.2733399,0.6183642,-0.1498894,1.466837,0.6924996
-7.802082,6.074825,23.38947,1.476662,-0.1363743,-0.2039757,0.3417209,0.5976542,-0.110416,1.496908,0.6972485
-7.77178,6.071505,23.38288,1.499446,-0.1457746,-0.257047,0.4098279,0.5767387,-0.07229012,1.528287,0.7112048
-7.740956,6.067972,23.37505,1.521895,-0.1547778,-0.3088465,0.4776588,0.5556288,-0.03549541,1.560611,0.7335811
-7.709624,6.064243,23.36602,1.543911,-0.1633094,-0.3591024,0.5451906,0.5343398,-1.565572E-05,1.593513,0.7633819
-7.677777,6.06043,23.35591,1.565745,-0.1682742,-0.4083209,0.5744521,0.4962863,0.04323153,1.626837,0.7603711
-7.645428,6.056548,23.34478,1.586935,-0.1726663,-0.4555526,0.6038824,0.4581501,0.08532093,1.660031,0.7627943
-7.612594,6.052614,23.33267,1.607373,-0.1764653,-0.5006548,0.6334626,0.4199477,0.1262665,1.692762,0.7704377
-7.579289,6.048643,23.31962,1.626956,-0.1796568,-0.5434836,0.6631657,0.3816926,0.1660668,1.724714,0.782979
-7.545537,6.044652,23.30567,1.64558,-0.1822327,-0.5838941,0.6929886,0.3434025,0.2047441,1.755583,0.8000492
-7.511486,6.040679,23.29102,1.663219,-0.18332,-0.6219109,0.6781067,0.3119357,0.1977027,1.785126,0.7721522
-7.477154,6.036732,23.27571,1.679856,-0.1838412,-0.6573846,0.6634739,0.2808202,0.1903988,1.813248,0.7451908
-7.442557,6.03282,23.25979,1.695555,-0.1838467,-0.6903492,0.6490642,0.2500584,0.1828369,1.839915,0.719196
-7.407713,6.028949,23.24332,1.710377,-0.1833846,-0.72084,0.6348494,0.2196537,0.1750334,1.865108,0.6942033
-7.372633,6.025125,23.22634,1.724381,-0.1825003,-0.7488945,0.6208687,0.1896015,0.1669786,1.888819,0.6703048
-7.337273,6.021336,23.20898,1.737491,-0.1832226,-0.774293,0.5814887,0.1587361,0.1795829,1.911014,0.6289485
-7.301643,6.017582,23.1913,1.749822,-0.1836168,-0.7974566,0.5426587,0.1278948,0.1918208,1.931716,0.5896023
-7.265762,6.013866,23.17333,1.761344,-0.1837252,-0.8185239,0.5043512,0.09708609,0.2037106,1.950915,0.552534
-7.229643,6.01019,23.15511,1.772028,-0.1835858,-0.8376337,0.4665887,0.06631292,0.2152434,1.968608,0.5181044
-7.193304,6.006553,23.13667,1.781842,-0.1832323,-0.8549238,0.4293502,0.03558121,0.2264225,1.984799,0.4866978
-7.156817,6.002974,23.11802,1.790824,-0.1811392,-0.8706554,0.397993,0.02749306,0.2168027,1.999475,0.454046
-7.1202,5.999452,23.09919,1.798938,-0.17889,-0.8848127,0.3669567,0.01942794,0.2072323,2.012727,0.4218767
-7.083468,5.995987,23.0802,1.806223,-0.1765103,-0.897516,0.3362903,0.01138568,0.1977171,2.024632,0.3902728
-7.046638,5.992581,23.06109,1.812721,-0.1740224,-0.9088849,0.3059447,0.003367507,0.18825,2.035267,0.3592375
-7.009723,5.989232,23.04187,1.81847,-0.1714456,-0.9190382,0.275932,-0.00462604,0.178831,2.044714,0.3288471
-6.972706,5.986037,23.02258,1.823622,-0.164301,-0.9282986,0.2351517,-0.001246219,0.1783718,2.052884,0.2951515
-6.935602,5.982996,23.00326,1.828049,-0.157098,-0.9366024,0.1947677,0.001957994,0.1779316,2.060016,0.2638143
-6.898425,5.980109,22.9839,1.831752,-0.1498497,-0.9441139,0.1547614,0.0049893,0.1775096,2.066185,0.2355539
-6.86119,5.977374,22.96452,1.834732,-0.1425673,-0.9509959,0.1151368,0.00785109,0.1771093,2.071463,0.2113902
-6.823911,5.974792,22.94514,1.83699,-0.1352602,-0.9574098,0.07590611,0.01054619,0.1767165,2.075924,0.1926179
-6.786663,5.972285,22.92557,1.838506,-0.1307427,-0.9634309,0.09498712,0.01017384,0.1567929,2.079759,0.183603
-6.749457,5.969854,22.90584,1.839392,-0.1262102,-0.969071,0.1138518,0.009901553,0.1370597,2.08288,0.1784534
-6.712305,5.9675,22.88594,1.839726,-0.1216638,-0.9742541,0.1325399,0.009727876,0.1175241,2.085321,0.1774074
-6.675214,5.965222,22.8659,1.839587,-0.1171041,-0.9789051,0.1510301,0.009650689,0.09818216,2.087115,0.1803967
-6.638193,5.963023,22.84571,1.839053,-0.1125319,-0.9829496,0.1693313,0.009668045,0.07902998,2.088294,0.1871158
-6.601218,5.960858,22.82536,1.838212,-0.1104068,-0.9862728,0.2104875,-0.006728037,0.06930597,2.089006,0.2217061
-6.564297,5.95873,22.80484,1.837096,-0.1082708,-0.9887611,0.2512413,-0.0228631,0.0596209,2.089089,0.2592288
-6.527431,5.956641,22.78418,1.835745,-0.1061263,-0.9902534,0.2916105,-0.03874047,0.04996466,2.088498,0.2983856
-6.490624,5.954592,22.7634,1.834196,-0.1039779,-0.9905901,0.3315991,-0.05436338,0.04035107,2.087188,0.3384399
-6.45388,5.952587,22.74254,1.832486,-0.1018329,-0.9896131,0.3712182,-0.06973431,0.03076998,2.085116,0.3789626
-6.417214,5.950589,22.72174,1.830667,-0.1012509,-0.9871851,0.3624496,-0.05848937,0.01645033,2.082337,0.3675069
-6.380629,5.948598,22.70104,1.828779,-0.1006924,-0.9833329,0.3537813,-0.04725728,0.002351157,2.078825,0.3569314
-6.344123,5.946613,22.68046,1.826877,-0.1001661,-0.9780904,0.3451976,-0.03603959,-0.01154254,2.074651,0.3472657
-6.307697,5.944633,22.66003,1.825017,-0.09968023,-0.9714912,0.3367272,-0.02483725,-0.02522426,2.069884,0.3385829
-6.271348,5.942657,22.63977,1.823252,-0.09924237,-0.9635685,0.3283682,-0.01365139,-0.03869629,2.064597,0.3309222
-6.235055,5.94079,22.61973,1.821595,-0.0937176,-0.9541141,0.3200338,-0.01563888,-0.04671888,2.058477,0.3238037
-6.198815,5.939032,22.59994,1.820123,-0.088256,-0.9433692,0.3117751,-0.01754807,-0.05467414,2.051971,0.3170188
-6.162624,5.937378,22.5804,1.818868,-0.08286385,-0.9313675,0.3036003,-0.01938047,-0.06255753,2.045139,0.3105837
-6.126475,5.93583,22.56116,1.81786,-0.07754686,-0.9181423,0.2955002,-0.02113673,-0.07038277,2.038042,0.304501
-6.090365,5.934384,22.54224,1.81713,-0.07231033,-0.9037268,0.2874822,-0.02281873,-0.07813889,2.030742,0.2987849
-6.054236,5.93295,22.52363,1.816718,-0.07223637,-0.8885463,0.2861865,-0.04568359,-0.07142349,2.023659,0.2984812
-6.018085,5.931525,22.50538,1.816572,-0.07225212,-0.8722429,0.2848509,-0.06835559,-0.0649082,2.016423,0.3000426
-5.981905,5.930107,22.48749,1.816658,-0.07236391,-0.8548222,0.2834979,-0.09083588,-0.05858351,2.00903,0.3034044
-5.945694,5.928694,22.47,1.816941,-0.07257783,-0.8362895,0.2821209,-0.1131254,-0.05244657,2.00148,0.308448
-5.909447,5.927282,22.45292,1.817386,-0.0728998,-0.8166506,0.2807288,-0.1352236,-0.04650501,1.993771,0.3150505
-5.873243,5.925866,22.43637,1.817962,-0.07208496,-0.7957783,0.243293,-0.1380389,-0.06526861,1.985811,0.287239
-5.837078,5.924441,22.42038,1.818737,-0.07137491,-0.7739457,0.206302,-0.1406865,-0.08396229,1.97785,0.2634443
-5.800947,5.923004,22.40494,1.819779,-0.07075815,-0.7512984,0.1696995,-0.1431703,-0.1025804,1.970039,0.244578
-5.764842,5.921555,22.39009,1.821159,-0.07022187,-0.7279797,0.13354,-0.1454913,-0.1211284,1.962526,0.2316737
-5.728755,5.92009,22.37582,1.822948,-0.06975241,-0.704131,0.09776781,-0.1476534,-0.1396011,1.955455,0.2254962
-5.692529,5.918565,22.36215,1.825168,-0.07330154,-0.6803808,0.05218531,-0.1349527,-0.1065248,1.949238,0.1796749
-5.656156,5.916976,22.34909,1.827735,-0.07688065,-0.656423,0.007011962,-0.1223175,-0.07388175,1.943558,0.1430708
-5.619635,5.915324,22.33663,1.830527,-0.08046709,-0.6324316,-0.03775571,-0.1097467,-0.04167523,1.938369,0.1233153
-5.582964,5.913608,22.32478,1.833428,-0.08403786,-0.6085795,-0.08214963,-0.09724001,-0.00990376,1.933621,0.1276803
-5.546144,5.911831,22.31352,1.836321,-0.08757024,-0.5850383,-0.1261591,-0.08479864,0.0214483,1.929252,0.1535153
-5.509313,5.910089,22.30273,1.839172,-0.08542174,-0.5613059,-0.1257851,-0.07303473,0.008428678,1.924816,0.1456949
-5.472468,5.908383,22.29239,1.841956,-0.08321369,-0.5380685,-0.125413,-0.06142047,-0.004493713,1.92074,0.1397179
-5.435611,5.906714,22.2825,1.844729,-0.0809482,-0.5153254,-0.1249909,-0.0499545,-0.01731547,1.917065,0.135713
-5.39874,5.905084,22.27305,1.847548,-0.07862747,-0.4930757,-0.1245634,-0.03863492,-0.03003906,1.913829,0.1338321
-5.361853,5.903493,22.26402,1.85047,-0.07625364,-0.4713185,-0.1241312,-0.02745991,-0.04266495,1.911072,0.1341003
-5.324899,5.901962,22.2554,1.853556,-0.07340866,-0.4500076,-0.1211024,-0.02322575,-0.04082692,1.908812,0.1298925
-5.287877,5.900492,22.24719,1.856794,-0.07051525,-0.4291774,-0.1181092,-0.01903185,-0.03901791,1.907053,0.1258348
-5.250782,5.899084,22.23938,1.860181,-0.06757575,-0.4088163,-0.1151363,-0.01487793,-0.03723564,1.905773,0.1219189
-5.213613,5.897739,22.23195,1.863709,-0.06459248,-0.3889128,-0.1121826,-0.01076419,-0.03547553,1.904951,0.1181496
-5.176367,5.896457,22.2249,1.867375,-0.06156759,-0.3694554,-0.1092481,-0.006689244,-0.0337461,1.904567,0.1145368
-5.138969,5.895216,22.21821,1.871136,-0.06041542,-0.3506155,-0.1018435,-0.02673063,-0.01039117,1.90466,0.1058046
-5.101421,5.894019,22.21189,1.874928,-0.05922605,-0.3321755,-0.09454457,-0.04652613,0.01277467,1.905047,0.106144
-5.063725,5.892864,22.20592,1.878653,-0.05800121,-0.3141053,-0.08734196,-0.06607901,0.03575901,1.905613,0.1152118
-5.025883,5.891754,22.2003,1.882212,-0.05674249,-0.2963752,-0.08021343,-0.08539061,0.05854595,1.906248,0.1309709
-4.987903,5.890687,22.19502,1.885511,-0.05545157,-0.2789561,-0.07317987,-0.104465,0.08115201,1.906841,0.151175
-4.949949,5.889607,22.19013,1.888441,-0.05495724,-0.2618912,-0.09050659,-0.1050055,0.05375084,1.907306,0.1486834
-4.912024,5.888516,22.18563,1.891123,-0.05442932,-0.2451766,-0.1076021,-0.1056079,0.02658659,1.907727,0.1530951
-4.874132,5.887415,22.18151,1.893667,-0.05386448,-0.2288798,-0.1244772,-0.1062712,-0.000340262,1.908209,0.1636712
-4.836271,5.886304,22.17776,1.896177,-0.05325969,-0.2130675,-0.1411262,-0.1069946,-0.02702735,1.908853,0.1791506
-4.79844,5.885187,22.17436,1.898761,-0.05261242,-0.1978054,-0.1575602,-0.1077762,-0.05348493,1.909761,0.1982462
-4.760531,5.884058,22.17121,1.901499,-0.05359595,-0.1832824,-0.1458025,-0.1002115,-0.04508505,1.911063,0.1825743
-4.722541,5.882921,22.1683,1.904385,-0.05454047,-0.1693232,-0.1341869,-0.0927079,-0.0367763,1.912675,0.1671926
-4.684468,5.881774,22.16561,1.907389,-0.05545042,-0.1558825,-0.1226974,-0.08526642,-0.02854055,1.914551,0.152117
-4.646311,5.880618,22.16315,1.910482,-0.05632971,-0.142916,-0.1113176,-0.07788584,-0.02038614,1.916648,0.1373805
-4.608067,5.879453,22.1609,1.913635,-0.05718189,-0.1303794,-0.100054,-0.07056521,-0.01231845,1.918924,0.1230528
-4.569733,5.878301,22.15888,1.916838,-0.05685711,-0.1181576,-0.09601881,-0.06994306,-0.003872791,1.921317,0.1188556
-4.531311,5.877164,22.15708,1.920038,-0.05650945,-0.1063087,-0.09202085,-0.06931141,0.004497116,1.923809,0.1152915
-4.492801,5.87604,22.1555,1.923205,-0.05614004,-0.09481722,-0.08808914,-0.06867041,0.01278347,1.926359,0.1124221
-4.454204,5.874932,22.15413,1.926306,-0.05574985,-0.08366772,-0.08420118,-0.06802049,0.02099331,1.928928,0.1102604
-4.415523,5.873839,22.15297,1.92931,-0.05533987,-0.07284515,-0.08034843,-0.06736189,0.02912911,1.931478,0.108821
-4.376772,5.872775,22.15205,1.932198,-0.05397728,-0.06228466,-0.08551659,-0.08294923,0.03241713,1.933955,0.1234687
-4.337957,5.871742,22.15135,1.934941,-0.05259509,-0.05205742,-0.09062836,-0.09837832,0.03569002,1.936356,0.1384398
-4.299079,5.870739,22.15088,1.937523,-0.05119279,-0.04218309,-0.09567741,-0.1136509,0.03894995,1.938659,0.1535832
-4.260143,5.869767,22.15063,1.93993,-0.04977,-0.03268123,-0.1006713,-0.1287688,0.04219708,1.940843,0.1688097
-4.221154,5.868828,22.15059,1.942145,-0.04832651,-0.02357135,-0.1056112,-0.1437331,0.04543119,1.942889,0.1840569
-4.182127,5.867932,22.15058,1.944162,-0.0462743,-0.014847,-0.06070127,-0.1395583,0.04462296,1.944769,0.158595
-4.143067,5.867079,22.1506,1.945977,-0.04420994,-0.006357994,-0.0162644,-0.1353867,0.04394891,1.946489,0.1432675
-4.103978,5.86627,22.15065,1.947595,-0.04214132,0.002071165,0.02773311,-0.1312184,0.0434012,1.948052,0.1409647
-4.06486,5.865503,22.15074,1.949019,-0.04007608,0.01061429,0.07130374,-0.1270534,0.04296992,1.94946,0.1518987
-4.02572,5.86478,22.15087,1.95025,-0.03802209,0.01944352,0.1144137,-0.1228927,0.04265992,1.950718,0.1732425
-3.986468,5.864119,22.15124,1.95129,-0.03602891,0.02872725,0.1046734,-0.1509523,0.07151694,1.951834,0.1971238
-3.947113,5.863519,22.15185,1.952017,-0.03405432,0.03842854,0.09499133,-0.1788049,0.09999891,1.952693,0.2258192
-3.907665,5.862979,22.15272,1.952313,-0.03209752,0.04850814,0.08536859,-0.2064514,0.1281071,1.95318,0.2575294
-3.868135,5.862501,22.15385,1.952059,-0.03015813,0.05892615,0.07580476,-0.2338935,0.1558495,1.953181,0.2911041
-3.82854,5.862083,22.15524,1.951138,-0.02823661,0.06964179,0.06627086,-0.2611326,0.1832294,1.952585,0.3258145
-3.788992,5.861742,22.15685,1.949417,-0.02436438,0.08072226,0.06480066,-0.2369393,0.1797018,1.95124,0.3043552
-3.749506,5.861477,22.15867,1.946925,-0.02051426,0.09205202,0.06328292,-0.2129888,0.1762376,1.949207,0.2835994
-3.710097,5.861288,22.16071,1.943678,-0.01668875,0.1036227,0.06171124,-0.1892788,0.1728325,1.94651,0.2636396
-3.67078,5.861173,22.16297,1.939696,-0.01289016,0.1154266,0.06007211,-0.1658079,0.1694813,1.94317,0.2445911
-3.631569,5.861133,22.16546,1.934996,-0.009120598,0.1274564,0.05839616,-0.1425727,0.1661879,1.939211,0.2266175
-3.592535,5.861196,22.16831,1.929532,-0.002964512,0.1398534,0.0215579,-0.1392594,0.1436106,1.934596,0.2012012
-3.553692,5.861362,22.17152,1.923452,0.003169641,0.1523216,-0.0148437,-0.1360734,0.1211585,1.929476,0.1827996
-3.515049,5.861629,22.17508,1.916848,0.009292126,0.1647124,-0.05086644,-0.133015,0.09883179,1.923934,0.1733439
-3.476615,5.861999,22.17899,1.909811,0.01541361,0.1768793,-0.08646077,-0.1300792,0.07662781,1.918046,0.1739767
-3.438397,5.862472,22.18324,1.902433,0.02154477,0.1886776,-0.1216309,-0.1272641,0.05455238,1.911888,0.1842992
-3.40041,5.863051,22.18775,1.894795,0.02795111,0.1999788,-0.1344205,-0.126063,0.02870044,1.905524,0.1865059
-3.362658,5.863738,22.19252,1.887013,0.03438264,0.2107158,-0.1470337,-0.1249508,0.003073282,1.899053,0.1929795
-3.32514,5.864533,22.19753,1.879193,0.04084438,0.2208374,-0.1594495,-0.1239248,-0.02233187,1.892565,0.2031754
-3.287854,5.865439,22.20276,1.871439,0.04734081,0.2302934,-0.1716709,-0.1229833,-0.04751894,1.88615,0.2164575
-3.250797,5.866457,22.20819,1.863855,0.05387576,0.2390345,-0.1837307,-0.1221268,-0.07248407,1.879893,0.2322195
-3.213881,5.867666,22.21378,1.856444,0.06324174,0.2471221,-0.1769073,-0.1220479,-0.06951677,1.873888,0.225886
-3.1771,5.869069,22.21948,1.849301,0.07264508,0.2544645,-0.170167,-0.121969,-0.06656279,1.868139,0.2196904
-3.14045,5.870665,22.2253,1.842414,0.08208157,0.26109,-0.1634781,-0.1218888,-0.06362202,1.862631,0.2136112
-3.103925,5.872454,22.23122,1.835773,0.09154721,0.2670267,-0.1568628,-0.121808,-0.06069694,1.857349,0.207671
-3.067521,5.874437,22.23722,1.829368,0.1010383,0.2723022,-0.1503517,-0.1217286,-0.05778471,1.852281,0.2018974
-3.031129,5.876691,22.24324,1.823114,0.1130361,0.2769999,-0.1276078,-0.1090888,-0.0203397,1.847499,0.1691089
-2.994749,5.879216,22.24926,1.816936,0.1250478,0.2811526,-0.1051593,-0.09648965,0.01675222,1.842807,0.1436989
-2.958382,5.882011,22.25528,1.81068,0.1370656,0.2848555,-0.08301025,-0.08393165,0.05348704,1.838067,0.1295997
-2.922035,5.885075,22.26129,1.804195,0.1490824,0.288202,-0.06114911,-0.07141505,0.08987067,1.833141,0.1300618
-2.885715,5.888409,22.26728,1.797332,0.1610912,0.2912843,-0.03959613,-0.05894152,0.1259055,1.827894,0.1445481
-2.849535,5.89196,22.27331,1.789984,0.1718459,0.294176,-0.03215193,-0.05957771,0.1284796,1.822118,0.1452249
-2.813506,5.895729,22.27938,1.782102,0.1825828,0.2969255,-0.0247524,-0.06018518,0.1310377,1.815871,0.1463072
-2.777637,5.899714,22.28547,1.773674,0.1932996,0.2995628,-0.01745164,-0.06076754,0.1335753,1.809149,0.1477824
-2.741942,5.903915,22.2916,1.76469,0.2039941,0.3021173,-0.01020227,-0.0613224,0.1360993,1.801949,0.1496247
-2.70643,5.908333,22.29776,1.75514,0.2146639,0.3046183,-0.003058022,-0.06185362,0.1386085,1.794266,0.1518142
-2.671165,5.912866,22.30397,1.745221,0.2210608,0.3070436,0.0002887833,-0.08333421,0.1236528,1.78576,0.149113
-2.636156,5.917513,22.31025,1.734797,0.2274324,0.309453,0.003671718,-0.104592,0.1088517,1.776797,0.1510022
-2.601411,5.922273,22.31658,1.723927,0.2337807,0.3118551,0.007104626,-0.1256284,0.0942078,1.767437,0.157188
-2.566938,5.927147,22.32297,1.71267,0.2401078,0.3142582,0.01057148,-0.1464463,0.07971404,1.757739,0.1670706
-2.532743,5.932134,22.32941,1.701082,0.2464162,0.3166707,0.01407853,-0.1670476,0.06537317,1.747765,0.1799354
-2.498815,5.937174,22.33575,1.689385,0.2499334,0.3190676,0.06009797,-0.1514961,0.05336677,1.737323,0.1714959
-2.465158,5.942268,22.342,1.677466,0.253435,0.3216689,0.1056766,-0.1360373,0.0416381,1.726729,0.1772214
-2.431776,5.947416,22.34815,1.665374,0.2569206,0.3246595,0.1508102,-0.1206717,0.03018272,1.716066,0.19549
-2.398668,5.952619,22.35423,1.653153,0.2603891,0.3282231,0.1955182,-0.1053982,0.01899347,1.705417,0.222928
-2.365836,5.957879,22.36025,1.640848,0.2638375,0.3325415,0.2397816,-0.09021886,0.00806832,1.694868,0.2563196
-2.333137,5.963258,22.36642,1.628466,0.2678425,0.3378104,0.226225,-0.09751541,0.04645365,1.684565,0.250689
-2.300575,5.968756,22.37276,1.615888,0.2718101,0.3439607,0.2127365,-0.1049234,0.08439863,1.674301,0.2517715
-2.268159,5.974372,22.37929,1.602957,0.2757282,0.3509358,0.1993092,-0.1124402,0.1219048,1.663927,0.2592831
-2.235901,5.980103,22.38602,1.589522,0.2795848,0.3586789,0.1859585,-0.1200617,0.1589745,1.653299,0.272522
-2.203816,5.98595,22.39297,1.575432,0.2833676,0.3671328,0.1726703,-0.1277859,0.1956104,1.642276,0.29053
-2.172053,5.991828,22.40017,1.560677,0.2851877,0.3761547,0.1517884,-0.1265676,0.1864625,1.630502,0.2717118
-2.140627,5.997736,22.40762,1.54516,0.2869232,0.3857393,0.1311111,-0.125413,0.1773566,1.618221,0.2537201
-2.109552,6.003671,22.41533,1.528916,0.2885765,0.395803,0.1106668,-0.1243182,0.168291,1.605466,0.2366939
-2.078844,6.009631,22.42331,1.511981,0.2901514,0.4062633,0.09045324,-0.1232818,0.1592718,1.59227,0.2207887
-2.048513,6.015614,22.43156,1.49439,0.291652,0.4170387,0.07046819,-0.1223023,0.1502918,1.578665,0.2061826
-2.018593,6.021802,22.43999,1.475325,0.3023455,0.4285649,0.08813863,-0.1145425,0.1408046,1.565779,0.201778
-1.989093,6.028194,22.44859,1.45565,0.3129638,0.4404114,0.1056169,-0.1067961,0.1314656,1.552683,0.1996085
-1.960025,6.034789,22.45738,1.435406,0.3235041,0.452652,0.1229429,-0.09905944,0.1222709,1.539461,0.1996945
-1.931398,6.041585,22.46637,1.414632,0.3339638,0.4653602,0.140095,-0.09133586,0.1132225,1.526196,0.2019608
-1.903223,6.04858,22.47557,1.393366,0.3443394,0.478609,0.1570589,-0.08362804,0.1043183,1.512979,0.2062606
-1.875528,6.055776,22.48505,1.371602,0.3550515,0.492499,0.1525817,-0.07546967,0.08935953,1.49997,0.192255
-1.848318,6.06317,22.49482,1.349447,0.365681,0.5069872,0.14815,-0.06735663,0.07456747,1.487201,0.179013
-1.821601,6.070761,22.5049,1.326964,0.3762335,0.5220581,0.1437777,-0.05928696,0.05994133,1.474764,0.1666731
-1.795381,6.078547,22.5153,1.304214,0.3867146,0.5376965,0.139449,-0.05126236,0.04547814,1.462751,0.1553773
-1.769663,6.086527,22.52603,1.281261,0.3971307,0.5538879,0.1351789,-0.04328119,0.03117921,1.451252,0.1453229
-1.744394,6.094666,22.53719,1.258448,0.4049478,0.5704121,0.1013711,-0.05159216,0.03338207,1.439807,0.1185421
-1.719577,6.102961,22.5488,1.235482,0.4127157,0.5873263,0.0679201,-0.05984452,0.03550944,1.428881,0.09723902
-1.695217,6.111412,22.56087,1.21235,0.4204442,0.6044899,0.03480715,-0.06804079,0.03756565,1.418441,0.08516023
-1.671316,6.120018,22.57338,1.189042,0.4281432,0.6217639,0.002005724,-0.0761841,0.03955251,1.408446,0.08586292
-1.64788,6.128778,22.58634,1.165547,0.435823,0.6390105,-0.03045673,-0.08427098,0.04147022,1.398848,0.09873698
-1.624916,6.137675,22.5996,1.141953,0.4426304,0.6560207,-0.02416561,-0.06335055,0.0418228,1.389368,0.07966439
-1.602427,6.146708,22.61316,1.118169,0.4494262,0.6729028,-0.01794751,-0.04263297,0.04216868,1.380248,0.06259298
-1.580417,6.155879,22.62701,1.094199,0.4562079,0.6896917,-0.01180128,-0.02211596,0.04250775,1.371521,0.0493487
-1.55889,6.165184,22.64116,1.070049,0.462973,0.706422,-0.005741831,-0.001800234,0.0428418,1.363224,0.04326233
-1.53785,6.174626,22.6556,1.045724,0.4697193,0.7231282,0.0002324404,0.01831638,0.04317244,1.355393,0.0468978
-1.51732,6.184185,22.67032,1.021289,0.4759558,0.739804,0.01873197,0.0190309,0.03570572,1.347915,0.04458655
-1.497303,6.193861,22.68532,0.9967161,0.4821687,0.7565649,0.03705086,0.01975524,0.02830555,1.341015,0.05063832
-1.477801,6.203653,22.7006,0.9720352,0.488355,0.7734856,0.05516779,0.02048573,0.02097452,1.334774,0.06247465
-1.458816,6.213561,22.71618,0.9472764,0.4945123,0.7906397,0.07310838,0.02122566,0.01371041,1.32928,0.07735205
-1.440349,6.223585,22.73205,0.9224695,0.5006374,0.8081002,0.09084279,0.02197038,0.006512048,1.324618,0.09368841
-1.422393,6.233657,22.74832,0.8980438,0.5034692,0.8256518,0.08570202,-0.003750216,-0.001754805,1.319721,0.08580198
-1.404948,6.243776,22.76498,0.8736238,0.5062715,0.8435427,0.08061984,-0.02919808,-0.00998612,1.31571,0.08632386
-1.388013,6.253942,22.78205,0.849233,0.5090495,0.8617402,0.07558747,-0.05437724,-0.01817884,1.312602,0.09487265
-1.371588,6.264153,22.79954,0.8248945,0.5118088,0.880212,0.07059045,-0.07929254,-0.02633188,1.310409,0.1093786
-1.355669,6.274411,22.81744,0.8006314,0.5145545,0.8989261,0.06565118,-0.1039438,-0.0344448,1.309139,0.1276747
-1.340204,6.284691,22.83583,0.776705,0.5153267,0.9176642,0.02609399,-0.1031266,-0.02562746,1.308029,0.1094201
-1.325191,6.294994,22.85471,0.7528408,0.5161013,0.9364557,-0.01308581,-0.102302,-0.01697996,1.3077,0.104524
-1.310629,6.305319,22.87407,0.7290051,0.5168889,0.9551469,-0.05189797,-0.1014713,-0.008497895,1.308025,0.1142893
-1.296521,6.315668,22.89392,0.7051653,0.5176998,0.9735852,-0.09033883,-0.1006339,-0.0001776998,1.308869,0.1352343
-1.282868,6.326042,22.91424,0.6812894,0.5185438,0.9916196,-0.128412,-0.09978977,0.007978844,1.310096,0.1628229
-1.269803,6.336418,22.93492,0.6572081,0.5205701,1.009201,-0.1287702,-0.1060854,-0.02850606,1.312022,0.1692586
-1.257326,6.346797,22.95594,0.6332032,0.5226546,1.026221,-0.1290597,-0.1124119,-0.0646084,1.314247,0.1829401
-1.245431,6.357183,22.97731,0.6094169,0.5248132,1.042676,-0.129259,-0.1187649,-0.1003373,1.316811,0.2021894
-1.23411,6.367577,22.99899,0.5859903,0.527061,1.058561,-0.1293924,-0.1251466,-0.1356918,1.319746,0.2254248
-1.223353,6.377983,23.02099,0.5630634,0.529412,1.073875,-0.1294466,-0.1315535,-0.1706775,1.323074,0.2513833
-1.213022,6.388451,23.04324,0.5407647,0.5319692,1.088622,-0.1111091,-0.1390342,-0.1634946,1.326844,0.2416738
-1.203106,6.398982,23.06573,0.5190759,0.5346306,1.102866,-0.09299106,-0.1464823,-0.156316,1.331008,0.2335361
-1.193593,6.409577,23.08844,0.4979678,0.5373849,1.116677,-0.0751208,-0.1539013,-0.1491428,1.335561,0.2270954
-1.184471,6.420238,23.11138,0.4774114,0.5402219,1.130125,-0.05745091,-0.1612854,-0.1419769,1.340501,0.2224209
-1.175731,6.430964,23.13453,0.4573773,0.5431317,1.143279,-0.04002392,-0.1686397,-0.1348181,1.345835,0.2195841
-1.168068,6.44096,23.15889,0.4405928,0.518008,1.154383,-0.6157735,0.5549649,-0.3986973,1.339796,0.9198492
-1.16141,6.45029,23.18444,0.4252861,0.4931371,1.163557,-1.182968,1.272634,-0.6624562,1.333385,1.859532
-1.155624,6.459064,23.21117,0.4124384,0.4686261,1.16903,-1.741739,1.98434,-0.9261453,1.325273,2.798037
-1.150511,6.467436,23.23905,0.4028818,0.4444168,1.168961,-2.292287,2.690011,-1.189857,1.313884,3.729142
-1.145804,6.475598,23.26803,0.3972151,0.4202139,1.161413,-2.834802,3.389534,-1.453728,1.297397,4.651705
-1.14045,6.483988,23.29651,0.3955825,0.4099128,1.142924,-2.740098,3.436607,-1.362434,1.277024,4.60159
-1.134398,6.492512,23.32422,0.3973801,0.3983168,1.114271,-2.639146,3.485256,-1.281361,1.248266,4.555655
-1.127633,6.501064,23.35088,0.4015438,0.3848692,1.075708,-2.532693,3.534754,-1.210876,1.210995,4.513894
-1.120169,6.509531,23.37623,0.4070426,0.3691078,1.027598,-2.42154,3.584412,-1.151255,1.165282,4.476299
-1.112045,6.517794,23.40003,0.4128908,0.350664,0.9704021,-2.306506,3.633588,-1.102687,1.111362,4.442843
-1.103392,6.525709,23.42174,0.4183024,0.3340104,0.9028782,-2.057746,3.57864,-1.050149,1.049633,4.259553
-1.09435,6.533132,23.44118,0.4223449,0.3143189,0.8276846,-1.809476,3.520869,-1.013533,0.980935,4.086316
-1.085073,6.539934,23.45823,0.4244092,0.2917241,0.7459372,-1.562873,3.459721,-0.992488,0.9064482,3.923936
-1.075718,6.546009,23.4728,0.4240469,0.2664708,0.6587431,-1.319067,3.394756,-0.9865809,0.8275053,3.773281
-1.066444,6.55127,23.48483,0.4209653,0.2388924,0.5671848,-1.079117,3.325651,-0.9953214,0.7456406,3.63526
-1.057441,6.555722,23.49418,0.4148478,0.2142098,0.4695642,-0.8174276,3.220019,-1.016343,0.6621745,3.474142
-1.048865,6.559324,23.50086,0.4058397,0.1880654,0.3696376,-0.5623643,3.109754,-1.051961,0.5802641,3.330682
-1.04086,6.562061,23.50488,0.3941445,0.1610075,0.2684469,-0.314855,2.994851,-1.101517,0.503326,3.206494
-1.033554,6.563942,23.50629,0.3801011,0.1335949,0.1669628,-0.07574274,2.87541,-1.164349,0.4361205,3.103132
-1.027057,6.565001,23.50514,0.3641712,0.106378,0.06608503,0.1542148,2.751625,-1.239791,0.3851028,3.02197
-1.02107,6.565589,23.50193,0.3466427,0.08268763,-0.03500151,0.2383372,2.523426,-1.16288,0.3580831,2.788686
-1.015607,6.565733,23.49671,0.3280786,0.05989487,-0.1343524,0.3200262,2.295236,-1.091985,0.3595463,2.561826
-1.010674,6.56546,23.4895,0.3087977,0.03814517,-0.2317209,0.3990541,2.067149,-1.026925,0.3879506,2.342418
-1.00627,6.5648,23.48037,0.2891318,0.01756395,-0.326887,0.4752065,1.839265,-0.9675161,0.4367617,2.131855
-1.002387,6.563785,23.46934,0.2694199,-0.001743019,-0.4196533,0.5482708,1.611686,-0.9135866,0.4986973,1.932039
-0.998812,6.562518,23.45653,0.2499103,-0.01882939,-0.5102766,0.5896137,1.411114,-0.8051698,0.5684997,1.728347
-0.9955234,6.561022,23.44199,0.230776,-0.03455153,-0.5982341,0.6303185,1.210645,-0.7013429,0.6421335,1.53455
-0.9925008,6.559319,23.42574,0.2120863,-0.04891674,-0.6834498,0.670272,1.010345,-0.6020387,0.7172706,1.353703
-0.9897231,6.557431,23.40785,0.1939008,-0.06193639,-0.7658461,0.7093566,0.8102772,-0.5071934,0.7924355,1.19037
-0.9871686,6.555382,23.38836,0.1762684,-0.07362592,-0.8453438,0.7475421,0.6105139,-0.4167415,0.8666588,1.051294
-0.984929,6.553116,23.36742,0.1595522,-0.08755264,-0.9204004,0.739892,0.5601664,-0.3914268,0.9382213,1.007195
-0.9829881,6.550655,23.34508,0.143443,-0.1002615,-0.9925667,0.7321965,0.510015,-0.3670198,1.007877,0.9648474
-0.9813297,6.548019,23.32141,0.1279635,-0.1118185,-1.061876,0.7244619,0.4600732,-0.3435077,1.075388,0.9243971
-0.9799377,6.545226,23.29645,0.1131314,-0.1222876,-1.128363,0.7166746,0.4103514,-0.3208772,1.140595,0.8859869
-0.9787953,6.542294,23.27027,0.09896041,-0.1317306,-1.192062,0.708823,0.3608594,-0.2991175,1.203394,0.849777
-0.9779082,6.539229,23.24287,0.08547857,-0.1404686,-1.252921,0.7129304,0.3236786,-0.286079,1.263665,0.8335939
-0.9772607,6.536051,23.21431,0.07268693,-0.1482835,-1.311015,0.7168687,0.2866666,-0.2737238,1.321375,0.8191478
-0.976837,6.532775,23.18466,0.06060392,-0.1552172,-1.366331,0.7206412,0.249833,-0.26204,1.376454,0.806477
-0.9766209,6.529419,23.15395,0.04924561,-0.1613123,-1.418854,0.7242259,0.2131848,-0.2510188,1.428844,0.7955887
-0.9765959,6.525997,23.12225,0.03862575,-0.1666119,-1.468571,0.7276458,0.1767319,-0.2406498,1.478497,0.7865208
-0.9767809,6.522502,23.08972,0.02880073,-0.1720318,-1.515255,0.6979201,0.1639394,-0.2424288,1.525261,0.7567961
-0.977159,6.518944,23.0564,0.01975373,-0.1767733,-1.55924,0.6684236,0.1514427,-0.2442685,1.569353,0.7275934
-0.9777128,6.515331,23.02236,0.01151428,-0.1809018,-1.600635,0.6391734,0.1392395,-0.2461651,1.610866,0.6989474
-0.9784244,6.511671,22.98763,0.004110013,-0.1844784,-1.639549,0.6101509,0.1273255,-0.2481159,1.6499,0.6708632
-0.9792754,6.50797,22.95227,-0.002433235,-0.18756,-1.676092,0.5813481,0.115697,-0.2501169,1.686556,0.6433583
-0.9801893,6.504256,22.91628,-0.008113554,-0.1894369,-1.710508,0.5653848,0.08401892,-0.2349474,1.720985,0.6179963
-0.9811483,6.500535,22.8797,-0.01293578,-0.1909124,-1.742715,0.549434,0.05256371,-0.2202574,1.753189,0.5942676
-0.9821349,6.496812,22.84258,-0.01693214,-0.1920263,-1.772776,0.5335379,0.02133498,-0.2060412,1.783227,0.572338
-0.9831327,6.49309,22.80495,-0.02013629,-0.1928157,-1.800753,0.5176694,-0.009664993,-0.192291,1.811158,0.5523141
-0.9841262,6.489374,22.76686,-0.02258315,-0.1933151,-1.826704,0.5018646,-0.04043303,-0.1789986,1.837044,0.5343626
-0.9851738,6.485647,22.72839,-0.02430457,-0.1940305,-1.850634,0.4731909,-0.04903706,-0.1870039,1.860937,0.5111601
-0.9862602,6.481913,22.68957,-0.02527188,-0.1945231,-1.872715,0.4447889,-0.05737355,-0.1950363,1.88296,0.4890481
-0.9873695,6.478173,22.65042,-0.02545107,-0.1948249,-1.893053,0.4166485,-0.06544539,-0.2030931,1.903222,0.4681088
-0.9884849,6.47443,22.61099,-0.02480867,-0.1949648,-1.911759,0.3887767,-0.07325665,-0.2111714,1.921835,0.4484498
-0.9895894,6.470683,22.57131,-0.02331163,-0.1949698,-1.928938,0.3611541,-0.08081067,-0.2192685,1.938907,0.4301643
-0.9905283,6.466927,22.53135,-0.02093877,-0.1958046,-1.944621,0.3471481,-0.06381683,-0.178997,1.954566,0.3957579
-0.9912891,6.463161,22.49115,-0.01784719,-0.1965451,-1.958943,0.3332574,-0.0472201,-0.139031,1.96886,0.3641701
-0.9918622,6.459385,22.45073,-0.01419908,-0.1972038,-1.97196,0.319522,-0.03101532,-0.09936864,1.981847,0.3360512
-0.9922413,6.455601,22.41011,-0.01015461,-0.1977909,-1.983724,0.3059312,-0.01519669,-0.06000994,1.993586,0.3121314
-0.9924234,6.451807,22.36933,-0.005871926,-0.1983148,-1.99429,0.2925,0.0002412078,-0.02095298,2.004134,0.2932497
-0.9924613,6.448038,22.32838,-0.001469108,-0.1970701,-2.003793,0.281467,0.003692867,-0.002060991,2.013461,0.2814987
-0.9923558,6.444294,22.28731,0.002941189,-0.1957753,-2.012185,0.2705629,0.007004907,0.01666236,2.021689,0.271166
-0.9921086,6.440576,22.24612,0.007284563,-0.1944365,-2.019509,0.2597782,0.01017997,0.03521753,2.02886,0.262352
-0.9917234,6.436885,22.20484,0.0114874,-0.1930593,-2.025807,0.2491029,0.01322022,0.05360577,2.035018,0.2551482
-0.9912051,6.43322,22.16349,0.01547686,-0.1916488,-2.031122,0.2385359,0.01612769,0.0718268,2.040202,0.2496369
-0.9906747,6.429575,22.12209,0.0191792,-0.1902984,-2.035493,0.2260282,0.02258331,0.05314778,2.04446,0.2332883
-0.9901358,6.42595,22.08065,0.02266976,-0.1889264,-2.038973,0.2136218,0.02904491,0.03469047,2.047833,0.2183605
-0.9895907,6.422345,22.0392,0.02602146,-0.187539,-2.041611,0.2013502,0.03551113,0.01645339,2.050372,0.2051187
-0.9890399,6.41876,21.99775,0.02930656,-0.1861414,-2.043456,0.189152,0.04198172,-0.001568331,2.052125,0.1937612
-0.9884828,6.415195,21.95632,0.03259661,-0.1847384,-2.044555,0.1770782,0.04845524,-0.01937481,2.053143,0.1846077
-0.9879106,6.411671,21.91488,0.03597496,-0.1826031,-2.04496,0.1756073,0.04570884,-0.03715497,2.053411,0.1852234
-0.9873199,6.40819,21.87345,0.03950064,-0.1804701,-2.044671,0.1741331,0.04305289,-0.05476484,2.053,0.1875502
-0.9867055,6.40475,21.83205,0.04324409,-0.1783433,-2.043694,0.1726729,0.04048548,-0.0722064,2.051917,0.1914909
-0.9860613,6.401352,21.79069,0.04727501,-0.1762267,-2.042036,0.1712184,0.03800533,-0.08948057,2.050171,0.1968931
-0.9853795,6.397996,21.74937,0.05166234,-0.1741245,-2.039702,0.1697524,0.03561125,-0.1065898,2.047773,0.2035815
-0.9844278,6.394628,21.70818,0.05642006,-0.1742761,-2.036732,0.1501908,0.01770063,-0.05363014,2.044953,0.160458
-0.9832036,6.391245,21.66712,0.06138921,-0.1744429,-2.033174,0.1308244,-0.0001676987,-0.001247007,2.041567,0.1308305
-0.9817086,6.387847,21.62621,0.06636323,-0.1746197,-2.029104,0.1116593,-0.0179927,0.05056538,2.037685,0.1238886
-0.9799486,6.384435,21.58544,0.07113747,-0.1748012,-2.024594,0.09266831,-0.03577249,0.1018132,2.033371,0.1422428
-0.9779331,6.38101,21.54482,0.07550921,-0.174982,-2.019718,0.07389271,-0.05350739,0.1525029,2.028689,0.1777085
-0.9757954,6.377581,21.50434,0.07928224,-0.1749215,-2.014541,0.06484699,-0.06756067,0.1641286,2.023675,0.188965
-0.9735489,6.374149,21.464,0.08240385,-0.1748565,-2.009106,0.05595629,-0.08151833,0.1756084,2.018383,0.2015308
-0.9712082,6.370715,21.4238,0.08482709,-0.1747881,-2.003446,0.047176,-0.09537976,0.1869434,2.012844,0.2151063
-0.9687884,6.367279,21.38375,0.08650552,-0.1747174,-1.997597,0.0385219,-0.1091456,0.1981359,2.007088,0.2294658
-0.9663061,6.363842,21.34384,0.08739326,-0.1746461,-1.991593,0.02995871,-0.1228162,0.2091869,2.001145,0.2444187
-0.9639875,6.360387,21.30412,0.087445,-0.1744135,-1.985466,0.01020166,-0.1039247,0.1598312,1.99503,0.19092
-0.961844,6.356915,21.26458,0.08685604,-0.1741829,-1.9793,-0.009307046,-0.08527456,0.1109328,1.988847,0.14023
-0.9598829,6.353422,21.22521,0.08582079,-0.1739531,-1.973171,-0.02860504,-0.06686305,0.06248569,1.982683,0.0958821
-0.9581076,6.34991,21.18602,0.08453194,-0.1737211,-1.967157,-0.04765152,-0.04868682,0.01448809,1.976621,0.06964897
-0.9565179,6.346379,21.147,0.08318041,-0.173484,-1.961331,-0.06647502,-0.03074289,-0.03306527,1.970744,0.08035774
-0.9549149,6.342861,21.10809,0.08195389,-0.1730165,-1.95576,-0.0657362,-0.01468725,-0.01600736,1.965108,0.06923293
-0.9532976,6.339357,21.06927,0.08078874,-0.1725414,-1.950449,-0.06499614,0.001229818,0.000859687,1.959732,0.06501345
-0.9516663,6.335865,21.03056,0.07962033,-0.1720597,-1.945393,-0.06426301,0.01700958,0.01753803,1.95461,0.06875058
-0.9500226,6.332388,20.99193,0.07838462,-0.171572,-1.94059,-0.06353714,0.03265292,0.03402853,1.949736,0.07912725
-0.9483696,6.328924,20.95339,0.0770181,-0.1710792,-1.936035,-0.06283553,0.04816079,0.05033352,1.945105,0.09381486
-0.9467049,6.325488,20.9149,0.07545561,-0.1703015,-1.93172,-0.0497578,0.02913168,0.0593682,1.94068,0.08275914
-0.9450336,6.322081,20.87646,0.07366168,-0.1695215,-1.927601,-0.03677489,0.01031725,0.06832375,1.936442,0.07827499
-0.9433615,6.318701,20.83806,0.07159943,-0.1687412,-1.923625,-0.02388607,-0.008284713,0.07720086,1.932339,0.08123517
-0.9416953,6.31535,20.7997,0.06923239,-0.1679624,-1.919745,-0.01110761,-0.02667682,0.08599982,1.928322,0.09072486
-0.9400423,6.312026,20.76139,0.06652449,-0.1671872,-1.915909,0.001578394,-0.04486115,0.09472228,1.92434,0.1048204
-0.9384914,6.308728,20.72311,0.06343881,-0.166342,-1.912068,0.01310559,-0.02879907,0.08565876,1.920338,0.09131575
-0.937049,6.305454,20.68488,0.06001334,-0.1655034,-1.908178,0.02452115,-0.0128751,0.07669722,1.916282,0.08154459
-0.9357209,6.302204,20.64668,0.05628461,-0.1646722,-1.904192,0.03578361,0.002910848,0.06783532,1.912127,0.07675005
-0.9345119,6.298978,20.60854,0.05228881,-0.1638492,-1.900064,0.0469203,0.01856047,0.05907281,1.907833,0.07768915
-0.9334264,6.295776,20.57044,0.04806181,-0.1630349,-1.89575,0.05790662,0.0340744,0.05040757,1.903355,0.08399502
-0.9324973,6.292554,20.53242,0.04368022,-0.1640572,-1.891248,0.06420197,0.02577095,0.02539183,1.898852,0.07369382
-0.931726,6.28931,20.49447,0.03920191,-0.1650877,-1.886492,0.07043424,0.0175855,0.0006134036,1.894107,0.07259895
-0.9311116,6.286046,20.45661,0.03472292,-0.1661251,-1.88146,0.0765871,0.009516469,-0.02393178,1.889099,0.08080147
-0.9306514,6.282761,20.41883,0.03033833,-0.1671683,-1.876128,0.08266145,0.001562114,-0.04824528,1.883805,0.09572337
-0.9303412,6.279455,20.38116,0.02614221,-0.1682165,-1.870473,0.08867525,-0.006278217,-0.07232783,1.878204,0.1146038
-0.9301286,6.276196,20.34362,0.02215694,-0.1657438,-1.864364,0.08678181,-0.01982472,-0.08214995,1.871848,0.121131
-0.930007,6.272983,20.30621,0.0184956,-0.1632757,-1.857912,0.08488927,-0.03321579,-0.09189716,1.865164,0.1294394
-0.929969,6.269817,20.26895,0.015195,-0.1608125,-1.851125,0.0829889,-0.046453,-0.1015715,1.858159,0.1391467
-0.9300063,6.266697,20.23183,0.0122915,-0.1583545,-1.844011,0.08110742,-0.05953801,-0.1111718,1.850839,0.1499412
-0.9301102,6.263625,20.19488,0.009821044,-0.1559023,-1.836578,0.07923579,-0.07247247,-0.1206998,1.84321,0.1615519
-0.9301391,6.260524,20.15817,0.007847389,-0.1562614,-1.828943,0.04608813,-0.07231558,-0.08271942,1.835623,0.1191477
-0.9300883,6.257395,20.12173,0.006186556,-0.1566247,-1.82113,0.01323496,-0.07214033,-0.04516499,1.827863,0.08613517
-0.9299561,6.254236,20.08553,0.004691313,-0.1569887,-1.813267,-0.01933428,-0.07194738,-0.008032406,1.820057,0.0749317
-0.9297434,6.25105,20.04959,0.003216273,-0.1573493,-1.805483,-0.05163949,-0.0717368,0.02868158,1.812329,0.09292705
-0.9294539,6.247836,20.0139,0.001617869,-0.1577029,-1.797902,-0.08367366,-0.07150906,0.06498201,1.804806,0.1278182
-0.9292561,6.244676,19.97834,-0.0002735805,-0.1551136,-1.790544,-0.07668116,-0.0856197,0.04316279,1.79725,0.1227752
-0.9291531,6.241571,19.9429,-0.002348978,-0.1525149,-1.783494,-0.06971788,-0.09961641,0.0215947,1.790004,0.1234923
-0.9291465,6.238519,19.90758,-0.004524003,-0.1499075,-1.776725,-0.06280148,-0.1135002,0.0002743384,1.783043,0.1297166
-0.929236,6.235522,19.87237,-0.006715196,-0.1472918,-1.770211,-0.05590657,-0.1272715,-0.02079952,1.77634,0.1405568
-0.9294198,6.232579,19.83726,-0.008839973,-0.1446681,-1.763924,-0.04902464,-0.1409314,-0.04162917,1.769869,0.1549131
-0.9296711,6.229677,19.8023,-0.01081388,-0.1423146,-1.757847,-0.05552217,-0.1148471,-0.04349983,1.763632,0.1347769
-0.9299864,6.226817,19.76746,-0.01262875,-0.1399529,-1.751995,-0.0619367,-0.08902019,-0.04539593,1.757621,0.117565
-0.930362,6.224,19.73275,-0.01427353,-0.1375825,-1.746391,-0.06826045,-0.06344812,-0.04731563,1.75186,0.1045176
-0.9307941,6.221224,19.69817,-0.01573733,-0.1352032,-1.741061,-0.07448597,-0.03812844,-0.049259,1.746374,0.09709989
-0.9312782,6.218492,19.66369,-0.01700944,-0.1328148,-1.736028,-0.08063158,-0.01305906,-0.05122481,1.741184,0.09641562
-0.9317073,6.21575,19.62935,-0.01806537,-0.1330166,-1.731377,-0.09504844,0.009641821,-0.01982823,1.736573,0.09757217
-0.9320802,6.213,19.59513,-0.01904271,-0.1332094,-1.727098,-0.1093316,0.03218038,0.01121345,1.732332,0.1145195
-0.9323984,6.210241,19.56103,-0.02006139,-0.1333936,-1.723247,-0.1234484,0.05455754,0.04190617,1.728519,0.1413229
-0.9326655,6.207475,19.52703,-0.02124042,-0.1335697,-1.719879,-0.1374184,0.07677402,0.07225181,1.725189,0.1732005
-0.9328873,6.204702,19.49313,-0.02269796,-0.1337393,-1.717048,-0.151226,0.098831,0.1022542,1.722398,0.207588
-0.9331459,6.201956,19.45922,-0.02455824,-0.13318,-1.714798,-0.1314054,0.0665355,0.09383108,1.720137,0.1746386
-0.9334489,6.199236,19.42529,-0.02678511,-0.1326193,-1.713063,-0.1117427,0.03457792,0.08554918,1.718397,0.1449163
-0.9338033,6.196541,19.39133,-0.02934759,-0.1320594,-1.711765,-0.09223643,0.002954826,0.07740735,1.717103,0.1204499
-0.9342155,6.193871,19.35734,-0.03221461,-0.1315016,-1.710831,-0.07286875,-0.0283367,0.0694034,1.716179,0.104545
-0.9346912,6.191225,19.32331,-0.0353552,-0.1309468,-1.710184,-0.05363891,-0.0593001,0.06153576,1.715555,0.1008974
-0.9352121,6.188601,19.28935,-0.03875666,-0.1293428,-1.709751,-0.07078816,-0.06649487,0.06733532,1.715074,0.1181803
-0.9357839,6.185997,19.25544,-0.0424249,-0.1277431,-1.709602,-0.08775542,-0.0736322,0.07306521,1.714893,0.1358721
-0.9364128,6.183416,19.22158,-0.04638214,-0.1261491,-1.709806,-0.104551,-0.08071293,0.0787258,1.715081,0.1537635
-0.9371054,6.180857,19.18776,-0.05065013,-0.1245625,-1.71043,-0.1211937,-0.08773765,0.08431669,1.715708,0.1717414
-0.9378688,6.17832,19.15397,-0.05525013,-0.1229854,-1.711542,-0.1376595,-0.09470629,0.08984017,1.716844,0.1897121
-0.9388391,6.175738,19.12008,-0.06009632,-0.1256747,-1.713171,-0.1159827,-0.08782869,0.05552146,1.718825,0.1557193
-0.9400191,6.17311,19.08609,-0.06515413,-0.1283738,-1.715257,-0.09446182,-0.08107432,0.02156869,1.721288,0.126338
-0.9414092,6.170434,19.05198,-0.07029171,-0.1310794,-1.717718,-0.07312177,-0.0744424,-0.01202252,1.724145,0.1050381
-0.9430071,6.16771,19.01774,-0.07537889,-0.1337875,-1.720469,-0.05194404,-0.06793036,-0.04525642,1.727309,0.09675153
-0.9448079,6.164938,18.98339,-0.08028706,-0.1364941,-1.723428,-0.03091902,-0.06153638,-0.07813612,1.730688,0.1041536
-0.9467656,6.162146,18.94894,-0.08492915,-0.1375125,-1.726539,-0.02318569,-0.06798308,-0.1005429,1.734088,0.1235644
-0.9488715,6.159334,18.91441,-0.08917444,-0.1385233,-1.729747,-0.01549577,-0.07439052,-0.1227124,1.737575,0.1443343
-0.9511153,6.156503,18.8798,-0.09293587,-0.1395254,-1.733021,-0.007840175,-0.0807588,-0.1446457,1.741111,0.1658488
-0.9534848,6.153654,18.84509,-0.09612727,-0.1405179,-1.736332,-0.0002696638,-0.08708931,-0.1663476,1.744658,0.1877662
-0.9559664,6.150786,18.8103,-0.09866344,-0.1415009,-1.739648,0.007250072,-0.09338143,-0.1878188,1.74818,0.2098774
-0.9584818,6.147938,18.77545,-0.1004782,-0.1405106,-1.742973,0.001592229,-0.08493365,-0.185067,1.751512,0.2036321
-0.9610165,6.145107,18.74055,-0.1015574,-0.1395149,-1.746295,-0.003973925,-0.07654952,-0.1823511,1.7548,0.1978068
-0.963556,6.142295,18.7056,-0.1019124,-0.1385168,-1.749633,-0.009441153,-0.06822881,-0.1796712,1.758064,0.1924215
-0.9660862,6.139502,18.6706,-0.1015541,-0.1375193,-1.753009,-0.0148277,-0.05997152,-0.1770267,1.761325,0.1874964
-0.9685931,6.136727,18.63554,-0.1004936,-0.1365254,-1.756442,-0.02015176,-0.05177709,-0.1744185,1.764604,0.183054
-0.9710295,6.133974,18.60041,-0.09874273,-0.1356636,-1.759951,-0.02031968,-0.03451122,-0.1588623,1.767931,0.1638326
-0.9733832,6.131242,18.5652,-0.09636331,-0.1348097,-1.763538,-0.02043369,-0.0174113,-0.1434688,1.771307,0.1459588
-0.9756431,6.12853,18.52992,-0.09341723,-0.133965,-1.767206,-0.02049494,-0.0004759468,-0.1282362,1.774736,0.1298645
-0.9777994,6.125837,18.49456,-0.08996575,-0.13313,-1.770954,-0.02052097,0.01629658,-0.1131626,1.778228,0.1161571
-0.9798435,6.123164,18.45913,-0.08606958,-0.1323049,-1.774784,-0.02051306,0.03290762,-0.09824706,1.781788,0.1056228
-0.9817764,6.12053,18.42356,-0.08177651,-0.1309223,-1.778708,-0.005132598,0.02270305,-0.09219754,1.785394,0.09509026
-0.9835909,6.117936,18.38788,-0.07712089,-0.1295483,-1.782656,0.01010391,0.01257251,-0.08621306,1.78902,0.08770888
-0.9852806,6.11538,18.35207,-0.0721256,-0.1281818,-1.786564,0.0251721,0.002516083,-0.08029413,1.792608,0.08418499
-0.9868394,6.112863,18.31614,-0.06681324,-0.1268216,-1.790373,0.04004829,-0.007465953,-0.07444154,1.796102,0.08485959
-0.9882614,6.110384,18.2801,-0.06120619,-0.1254666,-1.794023,0.05477729,-0.01737532,-0.0686519,1.799447,0.08952953
-0.989572,6.107975,18.24393,-0.05527717,-0.1224527,-1.797484,0.07059161,-0.03695364,-0.07543018,1.802498,0.1097199
-0.9907648,6.105638,18.20766,-0.04904517,-0.1194432,-1.800659,0.08622353,-0.05635031,-0.08215614,1.805282,0.1317554
-0.9918329,6.103372,18.17129,-0.04248247,-0.1164391,-1.803483,0.101675,-0.07556686,-0.08883092,1.807737,0.1547226
-0.9927686,6.101177,18.13482,-0.0355619,-0.1134416,-1.805892,0.1169395,-0.09460457,-0.09545515,1.809801,0.1781476
-0.993564,6.099053,18.09828,-0.02825695,-0.1104527,-1.807821,0.132045,-0.1134661,-0.1020276,1.811413,0.2017921
-0.9942211,6.097008,18.06169,-0.02051134,-0.1066885,-1.809213,0.1344945,-0.1024832,-0.1052197,1.812472,0.1991551
-0.9947312,6.095041,18.02508,-0.01234266,-0.1029381,-1.810051,0.1369575,-0.09160689,-0.1083457,1.813018,0.1972003
-0.9950857,6.093152,17.98845,-0.003739699,-0.09920426,-1.810326,0.1394249,-0.08083655,-0.1114069,1.813046,0.1959218
-0.9952754,6.091341,17.95182,0.005308703,-0.09549014,-1.810029,0.1418701,-0.07016973,-0.1144048,1.812554,0.195293
-0.9952909,6.089607,17.91521,0.01481368,-0.09179895,-1.809152,0.1443277,-0.0596072,-0.1173387,1.81154,0.195325
-0.9951099,6.087956,17.87863,0.02481383,-0.08758271,-1.807682,0.1399314,-0.05963101,-0.1186896,1.809972,0.1929349
-0.9947227,6.086387,17.84211,0.0352876,-0.08339567,-1.805639,0.1355718,-0.05963974,-0.1200329,1.807908,0.1906424
-0.9941198,6.0849,17.80565,0.04623963,-0.07924065,-1.80304,0.1312748,-0.05963558,-0.1213673,1.805372,0.1884662
-0.9932916,6.083493,17.76927,0.05767452,-0.07512033,-1.799901,0.1270051,-0.05961677,-0.1226944,1.802391,0.1863823
-0.9922282,6.082167,17.73298,0.06959689,-0.07103731,-1.79624,0.1227795,-0.05958448,-0.1240122,1.798991,0.1844021
-0.9908796,6.08097,17.6968,0.08218811,-0.06414191,-1.792014,0.1096929,-0.06759,-0.1153164,1.795044,0.1729127
-0.989237,6.079901,17.66077,0.09524167,-0.05728589,-1.787324,0.0967162,-0.07550507,-0.1067422,1.790776,0.1626313
-0.9872922,6.078959,17.62487,0.1087213,-0.05046764,-1.782222,0.08383963,-0.08333001,-0.09828868,1.786248,0.1537324
-0.9850379,6.078142,17.58912,0.1225911,-0.04368514,-1.776756,0.07107151,-0.09106593,-0.08995359,1.781516,0.1464097
-0.9824676,6.077452,17.55352,0.1368159,-0.03693591,-1.770977,0.0583846,-0.09871226,-0.08173614,1.776638,0.1408321
-0.9795649,6.076932,17.51799,0.1514382,-0.02913597,-1.7649,0.07642276,-0.08196136,-0.06412729,1.771624,0.129114
-0.9763252,6.076583,17.48254,0.1663119,-0.0213645,-1.758487,0.09427337,-0.06542775,-0.04663979,1.766463,0.123869
-0.9727451,6.076405,17.44717,0.1813673,-0.01361945,-1.751669,0.111929,-0.049108,-0.02927338,1.761086,0.1256846
-0.9688228,6.076397,17.41189,0.1965351,-0.005899057,-1.744381,0.129418,-0.03300157,-0.01202591,1.755427,0.1340998
-0.9645579,6.076558,17.37672,0.2117469,0.001798123,-1.736554,0.1466986,-0.01710257,0.005099978,1.749417,0.1477802
-0.959987,6.076746,17.34175,0.2265112,0.00378263,-1.72836,0.1306708,-0.02407969,0.006587637,1.743143,0.1330341
-0.9551109,6.076962,17.30702,0.2412454,0.005746976,-1.71964,0.1148119,-0.03099342,0.008035692,1.736489,0.1191929
-0.9499305,6.077202,17.27251,0.2559422,0.007693142,-1.710456,0.09910356,-0.03784318,0.00944308,1.729516,0.1065025
-0.9444467,6.077468,17.23824,0.2705944,0.009623498,-1.700869,0.08357819,-0.04463226,0.01081211,1.722286,0.0953638
-0.9386608,6.07776,17.20422,0.2851951,0.01154068,-1.690937,0.06817371,-0.05135624,0.01214093,1.714858,0.08621207
-0.9325801,6.078063,17.17044,0.2996896,0.01279694,-1.680754,0.05311814,-0.04656072,0.01511382,1.707311,0.07223479
-0.9262063,6.078378,17.13692,0.3141147,0.01404662,-1.670347,0.0382176,-0.04182142,0.01804901,1.699684,0.05945908
-0.9195409,6.078705,17.10365,0.3284599,0.01529348,-1.659778,0.02346195,-0.03713736,0.02094557,1.692035,0.04866584
-0.912586,6.079044,17.07065,0.3427144,0.01654135,-1.649105,0.008815619,-0.03250506,0.02380371,1.684421,0.0412421
-0.9053437,6.079395,17.0379,0.356868,0.01779409,-1.638389,-0.005679826,-0.02792705,0.0266248,1.676898,0.03900078
-0.8978545,6.079698,17.00536,0.370659,0.01551922,-1.627878,-0.008929846,-0.0202306,0.01926367,1.669615,0.0293276
-0.8901198,6.079952,16.97305,0.384371,0.01325151,-1.617396,-0.01213063,-0.01261447,0.01197356,1.662495,0.02120479
-0.8821403,6.080158,16.94096,0.3980339,0.01098964,-1.606959,-0.01529966,-0.005077222,0.004754202,1.655557,0.01680655
-0.873916,6.080316,16.90908,0.4116774,0.008732215,-1.596579,-0.01842828,0.002381366,-0.002395167,1.648823,0.01873524
-0.8654466,6.080427,16.87742,0.4253306,0.006477982,-1.586271,-0.02151753,0.009762537,-0.009475121,1.642316,0.0254576
-0.8567336,6.080544,16.84605,0.4392894,0.008004606,-1.57585,-0.04837096,0.01170436,-0.02074882,1.635953,0.05391897
-0.847775,6.080667,16.81496,0.4533326,0.009535417,-1.565624,-0.07494923,0.0136262,-0.03190519,1.629963,0.08258936
-0.8385677,6.080799,16.78415,0.4675047,0.01107232,-1.555698,-0.101255,0.01552845,-0.04294536,1.624463,0.1110766
-0.8291081,6.08094,16.75361,0.4818498,0.01261666,-1.546177,-0.1273252,0.01741382,-0.0538718,1.619568,0.1393453
-0.8193915,6.08109,16.72333,0.4964111,0.01416904,-1.537164,-0.1531364,0.01928053,-0.06468457,1.615394,0.1673516
-0.8093689,6.081329,16.69312,0.5113322,0.01707232,-1.528706,-0.1205378,0.0204491,-0.06186707,1.612046,0.1370221
-0.7990355,6.081654,16.66297,0.5265031,0.01997679,-1.520734,-0.08827096,0.02157354,-0.05909425,1.609421,0.1083942
-0.7883865,6.082065,16.63288,0.5419127,0.02287695,-1.51312,-0.05631546,0.02265301,-0.05636505,1.607397,0.08283482
-0.7774175,6.08256,16.60284,0.5575501,0.02576806,-1.505737,-0.02466024,0.02368777,-0.05367771,1.605855,0.06364381
-0.7661243,6.083139,16.57285,0.5734047,0.02864587,-1.49846,0.006646332,0.02468261,-0.05103434,1.604679,0.05707809
-0.7544872,6.083763,16.54301,0.5894166,0.03089283,-1.491187,0.00586114,0.02966582,-0.04178007,1.603747,0.05157507
-0.7425029,6.084431,16.51332,0.6055986,0.03312549,-1.4839,0.005093316,0.03459881,-0.03261724,1.603061,0.04782159
-0.7301689,6.085142,16.48378,0.621915,0.03534679,-1.476604,0.004325277,0.03948335,-0.02354551,1.602619,0.04617395
-0.7174838,6.085896,16.45438,0.6383308,0.03755976,-1.469304,0.00355729,0.0443202,-0.01456353,1.602414,0.04678708
-0.7044461,6.086694,16.42513,0.6548107,0.03976743,-1.462004,0.002806052,0.0491079,-0.005670893,1.60244,0.04951382
-0.691049,6.087578,16.39605,0.6715135,0.04429382,-1.454624,-0.002007422,0.06259969,0.006500569,1.602755,0.06296831
-0.6772932,6.088549,16.36712,0.6881994,0.04882266,-1.447273,-0.006759231,0.07595633,0.01855647,1.60331,0.07848181
-0.6631799,6.089605,16.33836,0.7048219,0.05335867,-1.439975,-0.0114503,0.08917944,0.03049668,1.604104,0.09494277
-0.6487116,6.090748,16.30976,0.721335,0.05790646,-1.432752,-0.01609895,0.1022716,0.04232263,1.605134,0.1118475
-0.6338916,6.091979,16.28131,0.7376928,0.06247045,-1.425627,-0.02067928,0.1152319,0.05403598,1.606395,0.1289415
-0.6186896,6.09325,16.25301,0.7536562,0.06464897,-1.418707,-0.02339377,0.08522785,0.06638002,1.607764,0.1105322
-0.6031113,6.094564,16.22485,0.769368,0.06685172,-1.411906,-0.02599486,0.05552382,0.07861978,1.609309,0.09969803
-0.5871635,6.09592,16.19684,0.7847753,0.06908242,-1.405226,-0.02851887,0.02611974,0.09075499,1.610995,0.09865108
-0.5708539,6.09732,16.16896,0.7998258,0.07134457,-1.398667,-0.03098415,-0.002985689,0.1027862,1.612787,0.1073962
-0.5541915,6.098764,16.14121,0.8144679,0.07364126,-1.39223,-0.03335759,-0.0317984,0.1147148,1.614648,0.1236259
-0.5373329,6.100224,16.11357,0.828519,0.07413365,-1.385975,-0.02723894,-0.02103833,0.08955299,1.616437,0.09593909
-0.5202846,6.101699,16.08604,0.8422151,0.07465427,-1.379822,-0.02122438,-0.01038647,0.06463893,1.618273,0.06882256
-0.5030508,6.103191,16.05861,0.8556557,0.07519503,-1.373749,-0.0152614,0.0001550617,0.03997016,1.620181,0.04278491
-0.4856338,6.104698,16.03129,0.8689389,0.07574834,-1.367736,-0.0093536,0.01058759,0.01554515,1.622188,0.02100568
-0.4680339,6.106222,16.00406,0.8821623,0.07630689,-1.361763,-0.003513231,0.02091311,-0.008637682,1.624325,0.02289783
-0.4500881,6.107822,15.97697,0.8956529,0.08028759,-1.355705,-0.006724955,0.004592274,0.01211357,1.62683,0.01459632
-0.4317979,6.1095,15.95,0.9090955,0.08427237,-1.349676,-0.009889922,-0.01156388,0.03265968,1.629473,0.03603039
-0.4131667,6.111255,15.92317,0.922406,0.08826707,-1.343683,-0.01300463,-0.02755727,0.05300405,1.632209,0.0611388
-0.3941997,6.113089,15.89647,0.935501,0.0922773,-1.337735,-0.01609127,-0.0433882,0.07314647,1.634996,0.08655559
-0.3749035,6.115001,15.86989,0.9482979,0.0963084,-1.33184,-0.01914573,-0.0590587,0.09308978,1.637786,0.1118937
-0.3553741,6.116966,15.84338,0.9605899,0.0983469,-1.326066,-0.005589508,-0.05824136,0.08915771,1.640383,0.1066414
-0.3356185,6.118984,15.81696,0.9725218,0.1004077,-1.3203,0.007847177,-0.05740928,0.08528098,1.642885,0.1031031
-0.3156433,6.121055,15.7906,0.9841088,0.1024876,-1.314489,0.02113924,-0.0565615,0.08145822,1.645252,0.1013978
-0.2954551,6.123178,15.76433,0.9953662,0.1045837,-1.308581,0.03430577,-0.05569931,0.07768922,1.647445,0.1015624
-0.2750599,6.125355,15.73814,1.006309,0.1066929,-1.302525,0.04734343,-0.05482294,0.07397272,1.649428,0.1035322
-0.2544719,6.127585,15.71209,1.016986,0.1094622,-1.296249,0.04350379,-0.03798595,0.07174078,1.651213,0.09209915
-0.2336965,6.129868,15.68617,1.027373,0.112241,-1.289792,0.03967197,-0.02132067,0.06954204,1.652772,0.08285247
-0.2127394,6.132203,15.6604,1.03748,0.1150288,-1.283172,0.03585638,-0.004825353,0.06737651,1.654125,0.07647587
-0.1916056,6.134591,15.63478,1.047319,0.1178253,-1.276409,0.03206548,0.01150093,0.06524474,1.655289,0.0736026
-0.1703002,6.137032,15.6093,1.056899,0.1206301,-1.269521,0.02828682,0.0276604,0.06314527,1.656282,0.07451555
-0.1480805,6.138841,15.5845,1.064932,0.09570952,-1.2635,-0.1833228,0.9265934,0.5614291,1.655195,1.098811
-0.1249582,6.140055,15.56032,1.071145,0.07088958,-1.258239,-0.3936581,1.815991,1.055358,1.653947,2.136954
-0.1009513,6.140738,15.53664,1.073902,0.0461998,-1.254491,-0.6026939,2.695943,1.544996,1.652013,3.16518
-0.07609635,6.140983,15.51328,1.071504,0.02154823,-1.252821,-0.8103942,3.566535,2.030418,1.64868,4.183242
-0.05046773,6.140907,15.49,1.062175,-0.003333688,-1.253513,-1.016713,4.427853,2.511714,1.643022,5.191175
-0.02528309,6.140931,15.46586,1.04255,-0.01443377,-1.256721,-0.8999843,4.564473,2.488225,1.632931,5.27595
-0.000854224,6.140985,15.44085,1.013394,-0.02681641,-1.261023,-0.7939956,4.704711,2.452366,1.617982,5.364591
0.02251281,6.140992,15.41501,0.9748644,-0.04092668,-1.265046,-0.6998691,4.847777,2.405252,1.597616,5.456739
0.04452394,6.140861,15.38842,0.9273067,-0.05715454,-1.267427,-0.6186296,4.992884,2.348136,1.571476,5.552057
0.06490351,6.140494,15.36121,0.8712558,-0.07582888,-1.266845,-0.5511277,5.139261,2.2824,1.539394,5.650229
0.08329852,6.139814,15.33377,0.8054813,-0.09186986,-1.261892,-0.5268438,5.103603,2.134955,1.49987,5.55719
0.09955531,6.138708,15.30632,0.7328387,-0.1107894,-1.251752,-0.5162544,5.067498,1.987594,1.45472,5.467777
0.1135624,6.137072,15.27909,0.6545238,-0.1325774,-1.235773,-0.5191299,5.030395,1.841696,1.404676,5.382027
0.1252495,6.134809,15.25231,0.5717566,-0.1571361,-1.213481,-0.5350661,4.991823,1.698594,1.350605,5.299983
0.1345854,6.131835,15.22623,0.4857549,-0.18429,-1.184581,-0.563528,4.951383,1.559555,1.293504,5.221682
0.141519,6.128103,15.20135,0.3944848,-0.2076896,-1.147644,-0.6511094,4.750483,1.366757,1.231195,4.985886
0.146149,6.123568,15.17789,0.3023349,-0.2330746,-1.104226,-0.7499095,4.546641,1.187336,1.168351,4.758579
0.1485945,6.118201,15.15602,0.2103597,-0.2599521,-1.054982,-0.8584622,4.339815,1.022162,1.106713,4.540459
0.1489878,6.111999,15.13589,0.1194266,-0.287811,-1.000695,-0.9753258,4.130063,0.8719409,1.048088,4.332315
0.1474688,6.104975,15.1176,0.0302192,-0.3161415,-0.9422457,-1.099054,3.917559,0.7372189,0.9943267,4.135055
0.1441346,6.097397,15.10099,-0.05992231,-0.3383401,-0.8783379,-1.114062,3.648338,0.608898,0.9431555,3.862934
0.1390785,6.089291,15.08609,-0.1474257,-0.3601673,-0.8118289,-1.134671,3.378839,0.4891299,0.9002894,3.597677
0.1323915,6.080693,15.07295,-0.23208,-0.3813059,-0.743467,-1.16021,3.109203,0.3782004,0.8671784,3.3401
0.1241603,6.07164,15.06156,-0.3137757,-0.4014743,-0.674006,-1.19004,2.839601,0.2763252,0.8449384,3.091259
0.1144654,6.062178,15.05192,-0.392492,-0.4204281,-0.6041939,-1.223584,2.570218,0.1836421,0.8341823,2.852526
0.1031795,6.0525,15.0437,-0.4697753,-0.4344421,-0.5333981,-1.149157,2.322922,0.05183743,0.833032,2.592144
0.09034631,6.042634,15.03688,-0.5439744,-0.446915,-0.4632885,-1.081231,2.075196,-0.07627506,0.8427796,2.341221
0.07601243,6.032612,15.03145,-0.6150019,-0.4577714,-0.3941559,-1.01956,1.827138,-0.2004471,0.8620561,2.101931
0.06022727,6.02247,15.02738,-0.6827793,-0.4669524,-0.3262837,-0.9639401,1.578849,-0.3204748,0.8892093,1.877405
0.04304265,6.012245,15.02462,-0.747233,-0.4744157,-0.259946,-0.9141644,1.330445,-0.4361936,0.9224963,1.672138
0.02476321,6.00194,15.02313,-0.8074877,-0.4826414,-0.1962546,-0.873727,1.138912,-0.4591565,0.9609865,1.507098
0.005440772,5.991583,15.02285,-0.86458,-0.4892323,-0.1345259,-0.8359297,0.9485607,-0.4794575,1.002469,1.352193
-0.01487618,5.981201,15.02372,-0.9186957,-0.4942757,-0.07492536,-0.8006802,0.7594483,-0.4970863,1.045908,1.210349
-0.03614231,5.970818,15.02569,-0.9700155,-0.4978586,-0.017597,-0.7678983,0.57163,-0.5120507,1.09046,1.085645
-0.05831517,5.960458,15.02871,-1.018714,-0.5000674,0.03733424,-0.7374918,0.3851633,-0.5243649,1.135447,0.9834651
-0.0813312,5.950059,15.03263,-1.063905,-0.5054301,0.08856726,-0.6949605,0.3282672,-0.5165998,1.181185,0.9260696
-0.1051479,5.939638,15.03742,-1.10679,-0.5096422,0.1374288,-0.6533862,0.2716183,-0.508402,1.226216,0.8712994
-0.1297243,5.929208,15.04302,-1.147458,-0.5128059,0.1840016,-0.6127495,0.2152302,-0.4997729,1.270231,0.819487
-0.1550208,5.918784,15.04939,-1.185997,-0.5150166,0.2283733,-0.5730461,0.1591133,-0.4907177,1.313006,0.77104
-0.1809991,5.908376,15.05648,-1.222489,-0.5163625,0.2706361,-0.5342569,0.10328,-0.4812389,1.354383,0.7264215
-0.207613,5.897956,15.06421,-1.256649,-0.519006,0.3104581,-0.4840967,0.08448084,-0.4681875,1.394603,0.6787387
-0.234826,5.887532,15.07255,-1.288929,-0.5209616,0.3484588,-0.4345956,0.06553053,-0.4551688,1.433235,0.6327292
-0.2626028,5.877111,15.08146,-1.319388,-0.5223086,0.3848096,-0.3857488,0.04643615,-0.4421799,1.470262,0.5886269
-0.290909,5.866698,15.09092,-1.348089,-0.5231193,0.4196824,-0.3375429,0.02720599,-0.4292184,1.505699,0.5467209
-0.3197116,5.856298,15.10089,-1.375091,-0.5234598,0.4532498,-0.2899776,0.007845966,-0.4162829,1.539585,0.5073854
-0.3489545,5.845849,15.11147,-1.400048,-0.5265554,0.4851613,-0.2827771,-0.02389192,-0.3987399,1.572506,0.4894152
-0.3786083,5.835354,15.12263,-1.423477,-0.5292808,0.515968,-0.2759032,-0.05526907,-0.3811911,1.603948,0.4737973
-0.4086454,5.824821,15.13436,-1.445464,-0.531666,0.5456811,-0.2693508,-0.08628671,-0.3636394,1.633953,0.4606831
-0.4390392,5.814251,15.14662,-1.466091,-0.5337391,0.5743125,-0.2631162,-0.1169462,-0.3460865,1.662569,0.4502026
-0.4697653,5.803651,15.15941,-1.485438,-0.5355261,0.6018748,-0.2571906,-0.1472489,-0.3285347,1.689843,0.4424526
-0.5008348,5.793005,15.17273,-1.503474,-0.5382663,0.6282157,-0.2609084,-0.1399114,-0.3224386,1.716048,0.4377385
-0.5322242,5.782317,15.18657,-1.520333,-0.5407593,0.6534976,-0.2645692,-0.132593,-0.3164518,1.740946,0.4332661
-0.5639105,5.771591,15.2009,-1.536032,-0.5430183,0.6777108,-0.2681483,-0.1252928,-0.3105724,1.764527,0.4290186
-0.595871,5.760832,15.21571,-1.550584,-0.5450565,0.7008453,-0.271672,-0.1180132,-0.3047994,1.78678,0.4250123
-0.6280829,5.750045,15.23097,-1.564005,-0.5468866,0.7228913,-0.2751228,-0.110754,-0.2991323,1.807697,0.4212352
-0.6604794,5.739291,15.2466,-1.576526,-0.5451258,0.7442043,-0.2568562,-0.1034813,-0.277756,1.826591,0.3922141
-0.6930399,5.728571,15.26258,-1.587989,-0.5431916,0.7644751,-0.2387797,-0.09627324,-0.256593,1.844231,0.363489
-0.7257452,5.717889,15.27889,-1.598473,-0.5411066,0.7837782,-0.2208805,-0.08912871,-0.235641,1.860704,0.3350504
-0.7585779,5.707244,15.29552,-1.608056,-0.5388911,0.8021871,-0.2031674,-0.08204773,-0.2148984,1.8761,0.3069041
-0.791522,5.696638,15.31245,-1.616815,-0.5365629,0.8197746,-0.1856426,-0.0750296,-0.1943634,1.890508,0.2790515
-0.8246164,5.686083,15.32969,-1.624831,-0.5340735,0.8366177,-0.1735276,-0.04653858,-0.1921079,1.904006,0.2630268
-0.857846,5.675581,15.34723,-1.632099,-0.5314974,0.852764,-0.1614273,-0.01837106,-0.1899612,1.916622,0.249963
-0.8911955,5.665133,15.36506,-1.638617,-0.5288441,0.8682658,-0.149335,0.009475879,-0.1879209,1.928374,0.2402187
-0.9246498,5.654739,15.38317,-1.644384,-0.5261223,0.8831748,-0.1372636,0.037005,-0.185986,1.939279,0.2340971
-0.9581938,5.644403,15.40154,-1.649401,-0.5233402,0.8975416,-0.1252182,0.06421929,-0.1841542,1.949356,0.2317682
-0.9917973,5.634109,15.42023,-1.653653,-0.5211771,0.9113691,-0.1402741,0.0471408,-0.1752795,1.958772,0.2293948
-1.025447,5.623859,15.43922,-1.657196,-0.5189623,0.9246438,-0.1552304,0.03031024,-0.1664326,1.967381,0.2295975
-1.059129,5.613656,15.45849,-1.660071,-0.5166966,0.9373043,-0.1700869,0.01372447,-0.1576136,1.975183,0.2322928
-1.092831,5.603499,15.47804,-1.662316,-0.5143809,0.9492903,-0.1848479,-0.002619126,-0.1488231,1.982179,0.2373266
-1.126543,5.59339,15.49785,-1.663972,-0.5120164,0.9605423,-0.1995136,-0.0187233,-0.1400622,1.988367,0.2444866
-1.160274,5.583334,15.51782,-1.665076,-0.5093762,0.9710133,-0.1862241,-0.03005768,-0.1384057,1.993692,0.2339637
-1.194014,5.573331,15.53794,-1.665636,-0.506696,0.9807432,-0.1731151,-0.04130874,-0.1367181,1.998234,0.2244261
-1.227752,5.56338,15.55819,-1.66566,-0.5039825,0.9897841,-0.1601572,-0.05247686,-0.1349964,2.002022,0.2159356
-1.261477,5.553483,15.57856,-1.665156,-0.5012418,0.9981881,-0.1473688,-0.0635623,-0.1332442,2.005085,0.2085947
-1.295179,5.543638,15.59904,-1.664132,-0.4984792,1.006007,-0.1347434,-0.07456528,-0.13146,2.007452,0.2024784
-1.328828,5.533849,15.61966,-1.662594,-0.4955401,1.013297,-0.1304575,-0.05906971,-0.1252512,2.009117,0.1902531
-1.362413,5.524115,15.64041,-1.660567,-0.4925872,1.020069,-0.1261833,-0.04372369,-0.1191411,2.010141,0.1789654
-1.395926,5.514437,15.66129,-1.65807,-0.4896232,1.026342,-0.1219131,-0.0285263,-0.1131257,2.010548,0.1687424
-1.429358,5.504814,15.68228,-1.655127,-0.4866506,1.03213,-0.1176703,-0.01347559,-0.1072048,2.010364,0.1597521
-1.462701,5.495247,15.70337,-1.651757,-0.4836717,1.03745,-0.113432,0.001429175,-0.1013775,2.009613,0.1521389
-1.495906,5.485776,15.72457,-1.647937,-0.4782161,1.042378,-0.1172043,-0.01374917,-0.07978973,2.00772,0.142451
-1.528967,5.4764,15.74585,-1.643797,-0.4727558,1.046835,-0.1209844,-0.02871921,-0.0583834,2.00535,0.1373705
-1.561882,5.467121,15.76721,-1.639423,-0.4672903,1.050806,-0.1247444,-0.04348425,-0.03715752,2.002564,0.1372324
-1.594647,5.457937,15.78864,-1.634903,-0.4618189,1.054278,-0.1285079,-0.0580459,-0.01611215,1.999422,0.1419268
-1.627262,5.44885,15.81013,-1.630322,-0.4563406,1.057238,-0.1322584,-0.07240728,0.004757266,1.995983,0.1508566
-1.659792,5.439847,15.83156,-1.625779,-0.4515347,1.059662,-0.09620187,-0.07709331,0.003616888,1.992466,0.1233339
-1.692237,5.430932,15.85292,-1.621253,-0.4467243,1.061706,-0.06051191,-0.08173165,0.002551468,1.98878,0.1017264
-1.724596,5.422101,15.8742,-1.616742,-0.4419113,1.063514,-0.02516917,-0.08632334,0.001559769,1.984994,0.08993129
-1.756869,5.413355,15.89541,-1.61224,-0.4370972,1.065229,0.0098337,-0.09086907,0.0006432158,1.981182,0.09140188
-1.789056,5.404695,15.91654,-1.607743,-0.4322835,1.066992,0.04447664,-0.09536829,-0.000202898,1.977417,0.1052299
-1.821149,5.396069,15.93767,-1.603312,-0.4302635,1.068915,0.06277195,-0.08379827,7.825106E-05,1.974415,0.1047018
-1.853149,5.387478,15.95879,-1.598884,-0.4282462,1.071094,0.08088364,-0.07234418,0.0004006917,1.971565,0.1085173
-1.885055,5.378922,15.97992,-1.594461,-0.4262326,1.0736,0.0988101,-0.06100482,0.0007662107,1.968908,0.1161276
-1.916868,5.3704,16.00106,-1.590045,-0.4242243,1.076504,0.1165678,-0.0497798,0.001170196,1.966486,0.1267575
-1.948587,5.361915,16.02222,-1.585636,-0.4222232,1.079874,0.1341475,-0.0386677,0.001613792,1.964343,0.1396186
-1.980212,5.353495,16.04347,-1.581209,-0.41899,1.083803,0.1291689,-0.03947295,0.003387741,1.962245,0.1351081
-2.011744,5.345141,16.06483,-1.576799,-0.4157673,1.088251,0.1242505,-0.04027565,0.005138271,1.960472,0.1307161
-2.043183,5.336852,16.0863,-1.572413,-0.4125559,1.093199,0.1193761,-0.041075,0.006866205,1.959023,0.1264316
-2.074529,5.328628,16.1079,-1.568059,-0.4093562,1.098626,0.1145493,-0.04187101,0.008571462,1.957897,0.1222628
-2.105784,5.320468,16.12962,-1.563744,-0.4061688,1.104513,0.1097849,-0.04266435,0.01025497,1.957094,0.1182291
-2.136985,5.312412,16.15158,-1.559451,-0.4018754,1.110877,0.07346137,-0.05007597,0.0001582399,1.956384,0.08890557
-2.168133,5.304459,16.17377,-1.555165,-0.3975917,1.11754,0.03749575,-0.05739834,-0.009885372,1.955892,0.06926919
-2.199226,5.296607,16.19621,-1.550847,-0.3933138,1.124359,0.001895802,-0.06463294,-0.01987288,1.955506,0.06764571
-2.230263,5.288857,16.21888,-1.546458,-0.389038,1.131191,-0.03332673,-0.07178099,-0.02980763,1.955115,0.08456758
-2.261242,5.281208,16.24178,-1.541959,-0.3847602,1.137895,-0.06819077,-0.07884336,-0.03968738,1.954606,0.1115408
-2.292126,5.273618,16.26486,-1.537346,-0.3819641,1.144286,-0.07918677,-0.06687804,-0.03973155,1.954155,0.1110037
-2.322912,5.266088,16.2881,-1.532584,-0.3791619,1.150367,-0.09009432,-0.05502232,-0.03981156,1.953438,0.1128247
-2.353598,5.258618,16.31149,-1.527669,-0.3763528,1.156096,-0.1008603,-0.04327784,-0.03992238,1.952427,0.1167886
-2.38418,5.251208,16.33503,-1.522601,-0.3735366,1.161427,-0.1115087,-0.03164256,-0.04006064,1.95109,0.1226388
-2.414655,5.243858,16.35872,-1.517376,-0.3707132,1.166317,-0.1220417,-0.02011545,-0.04023282,1.949398,0.1300672
-2.44499,5.236599,16.38255,-1.511943,-0.3660662,1.170765,-0.143601,-0.02498122,-0.02956019,1.946963,0.148725
-2.475184,5.229433,16.40651,-1.506394,-0.3614106,1.174638,-0.1649604,-0.02975493,-0.01898945,1.944123,0.1686946
-2.505236,5.222361,16.43061,-1.500771,-0.3567454,1.177852,-0.1861064,-0.03443862,-0.008519829,1.940854,0.1894576
-2.535144,5.215382,16.45481,-1.495116,-0.3520706,1.180321,-0.2070721,-0.03903226,0.001843101,1.937133,0.2107268
-2.564911,5.208499,16.4791,-1.489469,-0.3473871,1.181964,-0.2278206,-0.04353899,0.01210807,1.932934,0.2322595
-2.594591,5.201661,16.50331,-1.483936,-0.344982,1.182688,-0.200785,-0.06577592,0.007055963,1.928686,0.2114022
-2.624183,5.194868,16.52743,-1.478431,-0.3425748,1.182621,-0.1740332,-0.08780552,0.002177507,1.923983,0.1949413
-2.653688,5.188118,16.55142,-1.472935,-0.3401688,1.181873,-0.1475471,-0.1096301,-0.002530159,1.918873,0.183835
-2.683106,5.181412,16.5753,-1.467426,-0.3377662,1.18055,-0.1213092,-0.1312515,-0.007066793,1.913406,0.1788654
-2.712434,5.174749,16.59904,-1.461884,-0.335368,1.178761,-0.09530219,-0.1526719,-0.01143738,1.907631,0.1803387
-2.741596,5.168136,16.62275,-1.456269,-0.3321581,1.176601,-0.0852614,-0.1096816,0.001334413,1.90143,0.1389293
-2.770591,5.161574,16.6464,-1.450654,-0.328952,1.174113,-0.07533462,-0.0671,0.01392537,1.895032,0.1018412
-2.799423,5.155063,16.67001,-1.44509,-0.3257482,1.171333,-0.06555052,-0.02492199,0.02634356,1.888496,0.07491302
-2.828093,5.148603,16.69356,-1.43963,-0.3225454,1.168293,-0.05586922,0.01685425,0.0385891,1.881882,0.06996109
-2.856605,5.142195,16.71704,-1.434326,-0.319342,1.165029,-0.04634365,0.0582349,0.05065742,1.87525,0.09002895
-2.885014,5.135821,16.74041,-1.429258,-0.3173678,1.161596,-0.03029579,0.05889481,0.05081875,1.868905,0.08348041
-2.913325,5.12948,16.76366,-1.424396,-0.3153906,1.158037,-0.01442414,0.059565,0.05095958,1.862639,0.07970524
-2.941542,5.123173,16.78679,-1.419741,-0.3134097,1.154414,0.001318815,0.06024357,0.05108311,1.856492,0.0789969
-2.96967,5.116899,16.8098,-1.415292,-0.311424,1.150792,0.016896,0.06093135,0.05118504,1.850502,0.08135117
-2.997712,5.110659,16.83269,-1.411051,-0.3094327,1.147231,0.03229395,0.06162895,0.0512637,1.844709,0.08642334
-3.025702,5.104478,16.85554,-1.407007,-0.3069807,1.143785,0.01955073,0.03980688,0.04468986,1.839063,0.06296033
-3.053643,5.098356,16.87834,-1.403144,-0.3045239,1.140414,0.006948798,0.01819419,0.03818132,1.833601,0.04286173
-3.081537,5.092294,16.90109,-1.399434,-0.3020638,1.137069,-0.005520578,-0.003210569,0.03174205,1.828274,0.03237811
-3.109386,5.08629,16.92381,-1.39585,-0.2996016,1.133702,-0.01783628,-0.02441046,0.02536956,1.82303,0.03946667
-3.137194,5.080345,16.94647,-1.392365,-0.297139,1.130267,-0.03001495,-0.0454068,0.01906022,1.817822,0.0576712
-3.164895,5.074423,16.96908,-1.388969,-0.29563,1.126732,-0.03830238,-0.04974178,0.03216399,1.812776,0.07053963
-3.192494,5.068526,16.99164,-1.385697,-0.2941217,1.123049,-0.04651713,-0.05402868,0.04513169,1.807734,0.08437897
-3.219994,5.062653,17.01415,-1.382599,-0.2926141,1.119185,-0.05465964,-0.05826819,0.05796184,1.802714,0.09870376
-3.2474,5.056804,17.0366,-1.379725,-0.2911073,1.115109,-0.06273068,-0.06246088,0.07065989,1.797735,0.1132666
-3.274718,5.050979,17.05898,-1.377126,-0.2896019,1.110788,-0.07074644,-0.06660681,0.08322297,1.792817,0.1279359
-3.301944,5.045249,17.08125,-1.374805,-0.284283,1.106102,-0.06680079,-0.07056732,0.09869248,1.787279,0.1385002
-3.329087,5.039613,17.10341,-1.372876,-0.2789664,1.101149,-0.06290837,-0.0744601,0.114017,1.781893,0.1500055
-3.356156,5.034072,17.12545,-1.371399,-0.2736523,1.095946,-0.05906893,-0.07828618,0.1291966,1.776716,0.1622025
-3.383162,5.028627,17.14737,-1.370434,-0.2683413,1.090507,-0.0553046,-0.08204571,0.1442376,1.771807,0.174913
-3.410116,5.023278,17.16916,-1.370041,-0.2630345,1.084845,-0.05158438,-0.08574091,0.1591336,1.767227,0.1879786
-3.437126,5.017984,17.19088,-1.370276,-0.2611062,1.079075,-0.0647077,-0.09050769,0.1428657,1.763586,0.1810783
-3.464203,5.012747,17.21251,-1.371066,-0.2591869,1.073046,-0.07765689,-0.09528493,0.1267432,1.760236,0.1765606
-3.491356,5.007565,17.23405,-1.372347,-0.2572799,1.066709,-0.09044919,-0.1000715,0.1107661,1.757099,0.1745408
-3.518594,5.002438,17.2555,-1.374053,-0.2553879,1.06001,-0.1030411,-0.1048669,0.09493202,1.7541,0.1750046
-3.545923,4.997365,17.27683,-1.376121,-0.2535138,1.052898,-0.1155036,-0.1096702,0.07923762,1.751164,0.1778967
-3.573288,4.99243,17.29806,-1.378544,-0.2468555,1.045141,-0.1308722,-0.1092725,0.08367171,1.747467,0.1899183
-3.600696,4.987633,17.31917,-1.381289,-0.2402226,1.036847,-0.1461132,-0.1088931,0.08802299,1.743766,0.2023729
-3.628152,4.982974,17.34015,-1.384373,-0.2336199,1.027954,-0.1612197,-0.1085315,0.09229756,1.740045,0.2151504
-3.655666,4.978452,17.36098,-1.387811,-0.227053,1.0184,-0.1761689,-0.1081872,0.09649792,1.736292,0.2281487
-3.683244,4.974067,17.38165,-1.391618,-0.220528,1.008124,-0.190955,-0.1078602,0.1006255,1.732497,0.2412947
-3.710922,4.969918,17.40202,-1.395928,-0.2083751,0.9967549,-0.1691809,-0.122367,0.09874227,1.727876,0.2309674
-3.738707,4.966003,17.42208,-1.400621,-0.1962708,0.9846703,-0.1475838,-0.1366924,0.09697969,1.723321,0.2233178
-3.766607,4.962322,17.4418,-1.405684,-0.1842126,0.9719576,-0.1261543,-0.1508374,0.09533714,1.71889,0.2185314
-3.794627,4.958873,17.46119,-1.411104,-0.1721971,0.9587037,-0.1049079,-0.1648047,0.09380806,1.714637,0.2167169
-3.822774,4.955654,17.48024,-1.416871,-0.1602204,0.9449945,-0.08384331,-0.1785961,0.09239267,1.710616,0.2178593
-3.851006,4.952587,17.49901,-1.422854,-0.1523341,0.9311894,-0.08307219,-0.1642914,0.102003,1.707288,0.2104691
-3.879328,4.949671,17.51751,-1.429207,-0.1444837,0.917025,-0.08236893,-0.1501122,0.1114972,1.704243,0.204328
-3.907751,4.946907,17.53573,-1.435972,-0.1366715,0.9025049,-0.08173215,-0.1360577,0.1208778,1.701532,0.1995076
-3.936283,4.944293,17.55365,-1.44319,-0.1289003,0.8876322,-0.08115302,-0.1221273,0.1301394,1.699207,0.196054
-3.964935,4.94183,17.57128,-1.450903,-0.1211729,0.8724102,-0.08065312,-0.1083201,0.1392896,1.697322,0.1940097
-3.993778,4.939397,17.58857,-1.458903,-0.1196033,0.8573087,-0.06475837,-0.1015649,0.1280513,1.696373,0.1758016
-4.02282,4.936994,17.6055,-1.467378,-0.1180745,0.8419344,-0.04901621,-0.09485115,0.1169508,1.695876,0.1583566
-4.05207,4.934619,17.62208,-1.476287,-0.1165813,0.8263497,-0.03341911,-0.08817883,0.1059828,1.695838,0.1418616
-4.081536,4.932273,17.6383,-1.485587,-0.1151178,0.8106168,-0.01797236,-0.08154701,0.09515455,1.696266,0.126599
-4.111224,4.929954,17.65416,-1.495237,-0.1136781,0.7947974,-0.002667931,-0.07495686,0.08444919,1.697162,0.1129483
-4.141142,4.927644,17.66972,-1.505129,-0.1136201,0.7790622,-0.01129966,-0.09256068,0.07665231,1.698605,0.1207093
-4.171297,4.925345,17.68499,-1.515292,-0.113581,0.7632641,-0.01980407,-0.1100038,0.06891733,1.700465,0.1313112
-4.201691,4.923055,17.69995,-1.525691,-0.1135623,0.7473656,-0.02816737,-0.127286,0.06125207,1.702699,0.144038
-4.23233,4.920774,17.71461,-1.536289,-0.1135656,0.7313299,-0.03640674,-0.14441,0.05365206,1.705264,0.1582979
-4.263216,4.9185,17.72896,-1.547052,-0.113592,0.7151204,-0.04453153,-0.1613773,0.04611451,1.708119,0.173644
-4.294394,4.916211,17.74289,-1.557908,-0.1142683,0.6987537,-0.01536705,-0.1626233,0.02164463,1.711254,0.1647756
-4.325864,4.913906,17.75641,-1.568795,-0.1149544,0.6822915,0.01362241,-0.1638501,-0.002484009,1.7146,0.1644341
-4.357623,4.911585,17.7695,-1.579619,-0.1156354,0.665847,0.04237005,-0.165061,-0.02628126,1.718115,0.172427
-4.389666,4.90925,17.78219,-1.590286,-0.1162969,0.6495327,0.07092954,-0.1662534,-0.04973982,1.721751,0.1874707
-4.421987,4.906902,17.79446,-1.600704,-0.116925,0.6334608,0.09925692,-0.1674303,-0.07287434,1.725456,0.2078353
-4.454473,4.904612,17.80648,-1.610952,-0.1142505,0.6174812,0.07862104,-0.1661268,-0.06044848,1.729018,0.1934771
-4.48712,4.90238,17.81824,-1.620907,-0.1115389,0.6017808,0.05816014,-0.1648303,-0.04820786,1.732605,0.1813164
-4.519923,4.900206,17.82976,-1.630619,-0.1087996,0.5862794,0.03786502,-0.1635417,-0.03616133,1.736225,0.1717187
-4.552879,4.89809,17.84103,-1.640136,-0.1060418,0.5708972,0.01774267,-0.1622605,-0.02430209,1.739889,0.1650269
-4.585986,4.896033,17.85205,-1.649506,-0.1032738,0.555555,-0.00223117,-0.160987,-0.01262381,1.743611,0.1614966
-4.619245,4.894026,17.86276,-1.65878,-0.100447,0.5401694,0.001440426,-0.1480685,-0.003995929,1.747405,0.1481294
-4.652657,4.892068,17.87317,-1.667992,-0.09761895,0.5247622,0.005066008,-0.1352791,0.004559744,1.751315,0.1354507
-4.68622,4.890161,17.88326,-1.677181,-0.09479019,0.5093503,0.008616425,-0.1226187,0.01303988,1.75538,0.1236108
-4.719934,4.888303,17.89303,-1.686384,-0.09196119,0.4939501,0.01209236,-0.1100862,0.02144093,1.75964,0.1128048
-4.753803,4.886496,17.9025,-1.695638,-0.08913243,0.4785778,0.01551743,-0.09767881,0.0297755,1.764134,0.1032885
-4.787871,4.884783,17.91159,-1.705088,-0.08402084,0.4630731,0.0396702,-0.0767041,0.02308638,1.768847,0.08938806
-4.82214,4.883166,17.92032,-1.714607,-0.07890138,0.4477137,0.06358992,-0.05592252,0.01651774,1.773852,0.0862777
-4.856609,4.881644,17.92869,-1.724176,-0.07376571,0.4325996,0.08727072,-0.03533281,0.01006541,1.779147,0.09468843
-4.89128,4.880219,17.9367,-1.733774,-0.06860588,0.4178302,0.1107231,-0.01493291,0.003729734,1.78473,0.1117878
-4.926153,4.878891,17.94436,-1.743384,-0.06341456,0.4035038,0.1339259,0.005277608,-0.0024957,1.790593,0.1340531
-4.961301,4.877677,17.95173,-1.752974,-0.05841285,0.3897336,0.1398395,-0.006947745,-0.02818776,1.796725,0.1428212
-4.996722,4.876578,17.9588,-1.762448,-0.05336805,0.3765247,0.1456986,-0.01898238,-0.05365124,1.803009,0.1564189
-5.03241,4.875595,17.9656,-1.771702,-0.04827558,0.3638989,0.1515035,-0.03082959,-0.07889875,1.809332,0.1735765
-5.068357,4.874729,17.97214,-1.78063,-0.0431314,0.3518774,0.1572242,-0.04249235,-0.1039268,1.815578,0.1931989
-5.104554,4.873982,17.97842,-1.78913,-0.03793228,0.3404817,0.1628927,-0.05397164,-0.1287289,1.821635,0.2145183
-5.140905,4.873342,17.98453,-1.797085,-0.03303973,0.3297528,0.1478025,-0.04455277,-0.1283911,1.827387,0.2007855
-5.177399,4.872808,17.9905,-1.804515,-0.02809659,0.3196115,0.1328715,-0.03519126,-0.1280454,1.832816,0.1878533
-5.214027,4.872382,17.99632,-1.811422,-0.02310884,0.3099998,0.1181207,-0.0258862,-0.1276858,1.837902,0.1758586
-5.250777,4.872063,18.00201,-1.81781,-0.01808198,0.30086,0.1035178,-0.01663866,-0.1273236,1.842628,0.1649366
-5.28764,4.871852,18.00758,-1.823683,-0.01302099,0.2921348,0.08909231,-0.007446924,-0.1269417,1.846979,0.1552646
-5.324533,4.871729,18.01289,-1.829059,-0.007359728,0.2837436,0.1133017,-0.02413988,-0.09951705,1.850952,0.1527209
-5.361448,4.871695,18.01797,-1.83403,-0.00166966,0.2758074,0.137223,-0.04077476,-0.07238624,1.854653,0.1604135
-5.398381,4.871751,18.02281,-1.838701,0.004048407,0.2684214,0.1608435,-0.05735159,-0.04555782,1.858195,0.1767353
-5.435327,4.871899,18.02743,-1.843181,0.009793371,0.2616798,0.1842053,-0.07386916,-0.01902483,1.861689,0.1993745
-5.472285,4.87214,18.03185,-1.847574,0.01556349,0.2556756,0.2072888,-0.09032699,0.007220814,1.865246,0.2262294
-5.509297,4.872479,18.03622,-1.851967,0.02044478,0.2505242,0.1927389,-0.08552621,0.01724869,1.868946,0.2115669
-5.546366,4.872917,18.04054,-1.85642,0.02534291,0.2461404,0.178324,-0.08081672,0.02717243,1.872838,0.1976591
-5.583494,4.873452,18.04484,-1.860977,0.03025296,0.2424665,0.1640271,-0.0761971,0.03699208,1.87695,0.1846058
-5.620684,4.874084,18.04913,-1.865677,0.03517057,0.2394454,0.1498628,-0.07166583,0.04670969,1.881309,0.1725591
-5.657941,4.874814,18.05341,-1.870561,0.04009186,0.2370201,0.1358374,-0.06722183,0.05632404,1.885944,0.1616879
-5.69526,4.875593,18.05767,-1.875613,0.04281929,0.2351552,0.1273704,-0.08258632,0.06997755,1.890782,0.1671543
-5.732647,4.87642,18.06191,-1.880941,0.04554357,0.2337884,0.1190022,-0.09784304,0.08344246,1.895962,0.1752068
-5.77011,4.877298,18.06616,-1.886599,0.04826139,0.2328843,0.1107173,-0.1129928,0.09672276,1.901531,0.1854211
-5.807655,4.878224,18.07041,-1.892639,0.05096944,0.2324074,0.1024991,-0.1280361,0.1098155,1.907536,0.1973797
-5.845293,4.8792,18.07468,-1.899116,0.05366431,0.2323223,0.09438585,-0.1429728,0.1227315,1.914026,0.2107438
-5.883156,4.880233,18.07903,-1.906046,0.05531283,0.232592,0.07273755,-0.1291418,0.0926869,1.920981,0.1748119
-5.921254,4.881322,18.08346,-1.913343,0.05694754,0.2331311,0.05134229,-0.1154457,0.06290892,1.928334,0.1411427
-5.959589,4.882467,18.08798,-1.92089,0.05857231,0.2338562,0.03021225,-0.1018829,0.03339592,1.935959,0.1113921
-5.998166,4.883667,18.0926,-1.928572,0.06019153,0.2346853,0.009358997,-0.08845159,0.00414221,1.943731,0.08904175
-6.036982,4.88492,18.09729,-1.936271,0.06180994,0.2355379,-0.01125773,-0.07515148,-0.02484963,1.951523,0.07994989
-6.075983,4.886209,18.10197,-1.94387,0.06336148,0.2363341,-0.0006699504,-0.08340711,-0.03475362,1.959209,0.09036044
-6.115164,4.887534,18.10663,-1.951333,0.06491829,0.2371152,0.009822662,-0.09158736,-0.04454506,1.966758,0.1023181
-6.154522,4.888893,18.11126,-1.958622,0.06648149,0.2379215,0.02019846,-0.0996939,-0.0542241,1.974139,0.1152697
-6.194052,4.890289,18.11588,-1.965697,0.06805213,0.2387935,0.0305035,-0.1077261,-0.0637839,1.981317,0.1288555
-6.233748,4.89172,18.12047,-1.972522,0.06963111,0.2397711,0.04069298,-0.1156856,-0.0732339,1.988261,0.1428366
-6.27357,4.893236,18.12515,-1.979143,0.07369988,0.2409083,0.02101759,-0.1097913,-0.0712343,1.995112,0.1325526
-6.31351,4.894836,18.12993,-1.98548,0.0777774,0.2421155,0.00156559,-0.1039286,-0.06929604,2.001699,0.1249221
-6.353565,4.896521,18.13478,-1.991542,0.08186348,0.243316,-0.0177178,-0.09809832,-0.06741396,2.00802,0.1203405
-6.393729,4.898289,18.13972,-1.997337,0.08595796,0.244434,-0.03679679,-0.09229985,-0.06558772,2.014073,0.1190589
-6.433997,4.900142,18.14474,-2.00287,0.09006064,0.2453941,-0.05567302,-0.08653328,-0.0638208,2.019856,0.1210809
-6.474347,4.902023,18.14974,-2.008087,0.09180348,0.2461132,-0.04145942,-0.08531038,-0.05623083,2.025195,0.1102663
-6.514773,4.903932,18.1547,-2.013083,0.09355257,0.2466594,-0.02740703,-0.08410919,-0.04869634,2.030294,0.1009794
-6.555272,4.905868,18.15962,-2.017886,0.09530671,0.2470889,-0.01351419,-0.08292969,-0.04121485,2.035191,0.09358755
-6.59584,4.907832,18.16452,-2.022527,0.09706487,0.2474571,0.0002357716,-0.08177122,-0.03378304,2.03992,0.08847532
-6.636477,4.909823,18.16938,-2.027035,0.0988261,0.2478187,0.01383749,-0.08063348,-0.02639898,2.044518,0.08596593
-6.677305,4.911941,18.17417,-2.031519,0.1042037,0.2482354,0.03362294,-0.1085592,-0.05830445,2.04928,0.1277303
-6.718318,4.914185,18.17889,-2.03577,0.1095861,0.2487781,0.05326239,-0.1362073,-0.0898596,2.05384,0.171651
-6.75951,4.916555,18.18354,-2.03966,0.1149751,0.2495245,0.07274897,-0.1635805,-0.1210707,2.05808,0.2161229
-6.800866,4.919054,18.18814,-2.043064,0.1203716,0.2505523,0.09205315,-0.1906818,-0.1519511,2.061887,0.2606194
-6.842373,4.921681,18.19269,-2.045861,0.1257754,0.2519394,0.1111993,-0.217514,-0.1825035,2.065149,0.3049347
-6.883932,4.924702,18.19742,-2.048068,0.1448045,0.2538877,0.003185631,-0.4571609,-0.1743459,2.068818,0.489288
-6.925529,4.928116,18.20235,-2.049542,0.1638399,0.2558327,-0.1046274,-0.694038,-0.1672661,2.071936,0.7215356
-6.967155,4.931923,18.20745,-2.050321,0.1828827,0.2573118,-0.2122539,-0.9281735,-0.1612523,2.074481,0.9656916
-7.008799,4.936125,18.2127,-2.050424,0.2019312,0.2578689,-0.3196441,-1.1596,-0.1563105,2.076417,1.212962
-7.050455,4.940722,18.21807,-2.049851,0.2209781,0.2570553,-0.4267846,-1.38835,-0.1524204,2.07769,1.460442
-7.09218,4.945693,18.22336,-2.048584,0.2382922,0.254451,-0.4599013,-1.523523,-0.1751402,2.078034,1.601032
-7.133955,4.951035,18.22852,-2.046461,0.2555675,0.2499344,-0.4924582,-1.657436,-0.1973987,2.077446,1.74028
-7.175757,4.95675,18.23351,-2.043312,0.272778,0.2434028,-0.5244788,-1.790099,-0.219191,2.075759,1.878184
-7.217558,4.962835,18.23827,-2.038956,0.2898926,0.2347672,-0.5560031,-1.921521,-0.2405217,2.072799,2.014754
-7.259327,4.969288,18.24276,-2.0332,0.3068746,0.2239543,-0.5870152,-2.051713,-0.2613826,2.068388,2.149985
-7.300972,4.976059,18.24694,-2.025896,0.3220971,0.2110054,-0.6134546,-2.1354,-0.2650514,2.062165,2.237524
-7.342456,4.983142,18.25077,-2.01687,0.3371035,0.1958122,-0.6399117,-2.218155,-0.268789,2.054202,2.324209
-7.383739,4.990533,18.2542,-2.005984,0.3518476,0.1783589,-0.6663694,-2.29999,-0.2726066,2.044403,2.410045
-7.424778,4.998224,18.25717,-1.993095,0.366279,0.1586427,-0.6928191,-2.380914,-0.276516,2.032672,2.495038
-7.465526,5.006207,18.25965,-1.978048,0.3803444,0.1366752,-0.719283,-2.460937,-0.2805362,2.018915,2.579202
-7.505879,5.014472,18.26149,-1.960603,0.3949934,0.1123668,-0.7150504,-2.533946,-0.2675597,2.00315,2.646463
-7.545777,5.023004,18.26266,-1.940746,0.4091802,0.08599115,-0.7119446,-2.60605,-0.2534999,1.985276,2.713416
-7.585157,5.031791,18.26313,-1.9184,0.4228708,0.05772272,-0.7099715,-2.677242,-0.2384343,1.965301,2.780024
-7.623957,5.040818,18.26286,-1.893493,0.436035,0.02774236,-0.7092133,-2.747504,-0.2224402,1.943248,2.846268
-7.662112,5.050071,18.26184,-1.865966,0.4486464,-0.00376357,-0.709653,-2.816834,-0.2056101,1.919147,2.912119
-7.699637,5.059479,18.26008,-1.836353,0.4566543,-0.03596823,-0.7049612,-2.841021,-0.2113495,1.892622,2.934798
-7.736468,5.069029,18.25757,-1.804015,0.4640692,-0.06928815,-0.7001275,-2.865059,-0.2164269,1.864036,2.957294
-7.772541,5.078707,18.25429,-1.768861,0.470865,-0.1035215,-0.6952003,-2.88894,-0.2208366,1.833385,2.979605
-7.80779,5.088497,18.25022,-1.730812,0.4770179,-0.1384582,-0.6901754,-2.912662,-0.2245831,1.800674,3.001729
-7.842149,5.098385,18.24537,-1.689806,0.4825076,-0.1738811,-0.6851007,-2.936219,-0.2276795,1.765926,3.023671
-7.875595,5.108364,18.23975,-1.645893,0.4868696,-0.2094873,-0.6998886,-2.988712,-0.245981,1.72913,3.079407
-7.908061,5.118418,18.23336,-1.598862,0.4905086,-0.2451779,-0.7137138,-3.04086,-0.2642165,1.690287,3.134649
-7.939475,5.12853,18.2262,-1.548609,0.4933817,-0.2807573,-0.7265585,-3.092678,-0.2823378,1.649376,3.189398
-7.969763,5.138682,18.21829,-1.495043,0.4954467,-0.3160127,-0.7384633,-3.144167,-0.3002946,1.606389,3.243654
-7.99885,5.148857,18.20962,-1.438087,0.4966629,-0.3507148,-0.7494296,-3.195338,-0.3180354,1.561336,3.29742
-8.026581,5.159246,18.20018,-1.374335,0.5078945,-0.3864999,-0.7638287,-3.262863,-0.332365,1.5153,3.367518
-8.05287,5.169828,18.18998,-1.306906,0.5181516,-0.4211658,-0.7776059,-3.329836,-0.3464438,1.467605,3.436932
-8.077637,5.180582,18.17907,-1.235787,0.5274002,-0.4544207,-0.7907737,-3.396265,-0.3602495,1.418386,3.50567
-8.100798,5.191482,18.16748,-1.16099,0.5356103,-0.4859603,-0.8033794,-3.462147,-0.3737518,1.367821,3.573733
-8.122272,5.202506,18.15527,-1.082554,0.5427568,-0.5154697,-0.815429,-3.52749,-0.3869107,1.316137,3.641128
-8.141726,5.213359,18.14256,-1.00324,0.542179,-0.5417343,-0.7919701,-3.469105,-0.2747314,1.262507,3.568947
-8.159118,5.224025,18.12945,-0.9211171,0.5407613,-0.5654894,-0.7761719,-3.409637,-0.163253,1.208577,3.500674
-8.174418,5.234497,18.11606,-0.8368292,0.5387235,-0.5865881,-0.7678463,-3.349097,-0.05299399,1.155245,3.4364
-8.187615,5.244772,18.10248,-0.7510129,0.5362922,-0.6049677,-0.7668335,-3.287494,0.05553267,1.103456,3.376202
-8.198713,5.254859,18.08881,-0.6642919,0.5336955,-0.6206445,-0.7729375,-3.224867,0.1618643,1.054189,3.320151
-8.207612,5.264897,18.07517,-0.5738654,0.5387361,-0.634222,-0.760103,-3.053433,0.30375,1.010839,3.161246
-8.214353,5.274915,18.06166,-0.4839082,0.5441369,-0.6453528,-0.756942,-2.881549,0.4421072,0.9730017,3.011934
-8.21899,5.284947,18.04832,-0.3951556,0.5501754,-0.6543902,-0.763154,-2.709339,0.5764014,0.9418426,2.87318
-8.221593,5.295038,18.03524,-0.3082955,0.5571011,-0.6617627,-0.7784009,-2.53697,0.7061543,0.9183342,2.746048
-8.222238,5.305236,18.02244,-0.2239682,0.5651303,-0.6679628,-0.8023189,-2.364639,0.8309454,0.9031658,2.631673
-8.221193,5.315348,18.00985,-0.1483937,0.5602027,-0.67315,-0.7787997,-2.11197,0.942452,0.8882447,2.44032
-8.218539,5.325422,17.99745,-0.07622112,0.5565881,-0.6782062,-0.7648334,-1.859787,1.049713,0.8806609,2.268408
-8.214362,5.33551,17.98524,-0.007912606,0.5543683,-0.6836064,-0.7601622,-1.608331,1.152404,0.8801731,2.119578
-8.208755,5.345662,17.97319,0.05609492,0.5535852,-0.6898388,-0.7644863,-1.357874,1.250287,0.8862735,1.997869
-8.201816,5.355932,17.96125,0.1153846,0.5542383,-0.6973959,-0.777585,-1.108681,1.343156,0.8982509,1.907323
-8.194155,5.366404,17.94889,0.1687245,0.5532464,-0.706624,-0.6501302,-0.9337898,1.26211,0.9131631,1.699281
-8.185854,5.377065,17.93604,0.2173091,0.5534106,-0.7174461,-0.5268657,-0.7585382,1.181929,0.9317808,1.499974
-8.176991,5.387901,17.92266,0.2614146,0.5545492,-0.7296396,-0.4077384,-0.583029,1.102546,0.9530144,1.312167
-8.167641,5.398903,17.9087,0.3013082,0.5565099,-0.742956,-0.2927388,-0.4073474,1.023891,0.9759475,1.140167
-8.157874,5.410058,17.89413,0.3372484,0.5591666,-0.7571258,-0.1818187,-0.2315795,0.9459278,0.9998216,0.9906899
-8.147815,5.421366,17.8791,0.3696813,0.5636129,-0.7719504,-0.1252172,-0.1547484,0.8395578,1.024808,0.8628347
-8.137527,5.432817,17.86358,0.3987876,0.5685383,-0.7871828,-0.07013783,-0.07801604,0.7342423,1.049726,0.7416992
-8.127065,5.444402,17.84758,0.4249614,0.5738481,-0.8026545,-0.0165928,-0.001401314,0.6299449,1.074313,0.6301649
-8.116474,5.456115,17.83109,0.4485949,0.5794665,-0.8181924,0.03546127,0.07507523,0.5266715,1.098389,0.5331761
-8.105797,5.467951,17.81412,0.4700779,0.5853335,-0.833621,0.08606499,0.1513958,0.4244155,1.121834,0.4587553
-8.094969,5.479822,17.79681,0.4894155,0.587472,-0.8484698,0.09605954,0.1337056,0.3476466,1.14217,0.3846593
-8.084014,5.491728,17.77919,0.5073342,0.5897682,-0.8629872,0.1058887,0.1164061,0.2715917,1.161878,0.3138866
-8.072953,5.503667,17.76126,0.5241411,0.5921891,-0.8771244,0.1155362,0.09949148,0.1962359,1.180999,0.248507
-8.061799,5.515639,17.74303,0.5401405,0.5947066,-0.8908353,0.1250049,0.08295637,0.121581,1.19959,0.193106
-8.050562,5.527645,17.72451,0.5556342,0.597296,-0.9040754,0.1342884,0.06679461,0.04762384,1.217721,0.1573624
-8.039017,5.539703,17.7058,0.5709448,0.6002424,-0.9168217,0.1143078,0.0561199,0.04665611,1.23565,0.135619
-8.02717,5.551815,17.68691,0.5860556,0.6032316,-0.9291298,0.09452794,0.04553661,0.04570104,1.253248,0.1144452
-8.015025,5.563981,17.66785,0.6009732,0.6062574,-0.941075,0.07498703,0.03504083,0.04475242,1.270566,0.09409407
-8.002584,5.576201,17.64861,0.6157042,0.6093143,-0.9527318,0.05563377,0.02463513,0.04380784,1.287654,0.07497422
-7.989852,5.588476,17.62921,0.630255,0.6123968,-0.964174,0.03649057,0.01431729,0.04286948,1.304562,0.05808906
-7.976815,5.600791,17.60958,0.6445423,0.6142629,-0.9754048,0.03914919,0.001244719,0.04728598,1.32067,0.06140173
-7.963479,5.613147,17.58973,0.6586421,0.6161512,-0.9864808,0.04178513,-0.01169765,0.0516451,1.336636,0.06745405
-7.949846,5.625543,17.56965,0.6725398,0.6180632,-0.9973881,0.04440696,-0.02451162,0.05594701,1.35244,0.07551732
-7.935921,5.63798,17.54935,0.6862212,0.6200001,-1.008113,0.04702241,-0.03719892,0.0601963,1.368061,0.08496153
-7.92171,5.650461,17.52884,0.6996719,0.6219634,-1.018641,0.04959968,-0.04975886,0.06439498,1.383477,0.09530365
-7.907237,5.66296,17.50817,0.7128235,0.6231415,-1.028916,0.03537728,-0.02835739,0.06661208,1.398246,0.0805783
-7.892507,5.675479,17.48732,0.725718,0.6243441,-1.039045,0.02126012,-0.00718972,0.06881763,1.41283,0.07238474
-7.877526,5.688018,17.46631,0.7383422,0.6255685,-1.049088,0.007255038,0.01374633,0.07100974,1.42726,0.07269099
-7.862299,5.700578,17.44514,0.7506833,0.6268121,-1.059106,-0.006630929,0.03445244,0.07318519,1.44157,0.08116041
-7.846833,5.713159,17.4238,0.7627285,0.6280722,-1.069159,-0.02042298,0.05493208,0.07534038,1.455792,0.09545054
-7.831174,5.725762,17.40218,0.7744384,0.6288996,-1.079282,0.007202597,0.03881676,0.05988959,1.469734,0.07173131
-7.815327,5.738387,17.38028,0.7859045,0.6297423,-1.089386,0.03455073,0.02289765,0.04456703,1.483571,0.06086276
-7.799295,5.751033,17.35809,0.7971904,0.630602,-1.099359,0.06161623,0.007172958,0.02937292,1.497251,0.06863512
-7.78308,5.763702,17.33564,0.8083591,0.6314805,-1.10909,0.08844996,-0.00836129,0.01430817,1.510726,0.08998906
-7.766684,5.776394,17.31293,0.819473,0.6323791,-1.118471,0.1150068,-0.02370545,-0.0006237744,1.523948,0.1174261
-7.750098,5.789124,17.28996,0.8306326,0.6339869,-1.127425,0.1359798,-0.01395391,-0.01069437,1.537198,0.1371116
-7.733324,5.801893,17.26676,0.8418368,0.6356159,-1.135837,0.1567399,-0.004277069,-0.02063108,1.550104,0.1581497
-7.716357,5.814702,17.24334,0.8531234,0.6372656,-1.143629,0.1773055,0.005325322,-0.03043582,1.56263,0.1799776
-7.699196,5.827551,17.21971,0.8645296,0.6389349,-1.15072,0.1976384,0.01485514,-0.04010719,1.57474,0.2022133
-7.681839,5.840442,17.19589,0.8760926,0.6406214,-1.157032,0.2178046,0.02430979,-0.04965226,1.586397,0.2247113
-7.664167,5.853366,17.17207,0.8878606,0.6425145,-1.162493,0.1844638,0.004726414,-0.02737436,1.597658,0.1865438
-7.646182,5.866324,17.14827,0.8997366,0.6444199,-1.167224,0.1514564,-0.01472473,-0.005382942,1.608482,0.1522656
-7.627883,5.879313,17.12449,0.9116353,0.6463375,-1.171352,0.1187866,-0.03404424,0.01632344,1.618918,0.1246424
-7.609272,5.892334,17.10074,0.923472,0.6482682,-1.175001,0.08641922,-0.05323158,0.03774255,1.629012,0.1082884
-7.590353,5.905386,17.07704,0.9351628,0.6502138,-1.178295,0.05436676,-0.07228754,0.05887773,1.638806,0.1079251
-7.571174,5.918478,17.05332,0.9466376,0.6523974,-1.18136,0.03357783,-0.03972918,0.07367893,1.648441,0.09019126
-7.551742,5.93161,17.0296,0.9578224,0.6545997,-1.184283,0.01295417,-0.00753715,0.08834282,1.657845,0.0896051
-7.532065,5.944783,17.00587,0.9686571,0.6568221,-1.187153,-0.007529832,0.02429323,0.1028666,1.667047,0.1059641
-7.51215,5.957996,16.98213,0.9790821,0.6590661,-1.190058,-0.02786659,0.05576592,0.1172501,1.676069,0.132793
-7.492008,5.971252,16.95838,0.9890385,0.6613322,-1.193085,-0.04807343,0.08688495,0.1314916,1.684936,0.1647728
-7.471821,5.984512,16.93448,0.9983796,0.661772,-1.19629,-0.02031018,0.09085023,0.08594427,1.692871,0.1266992
-7.451594,5.997777,16.91043,1.007377,0.6622262,-1.199591,0.007094666,0.09480444,0.04079939,1.700697,0.1034544
-7.43133,6.011046,16.88623,1.016207,0.6626881,-1.202881,0.03413757,0.09874771,-0.003944732,1.708436,0.1045564
-7.411028,6.02432,16.86188,1.025047,0.6631516,-1.206054,0.06081505,0.1026798,-0.04828995,1.716117,0.1287383
-7.390682,6.037598,16.83739,1.03407,0.6636102,-1.209006,0.08711513,0.1066017,-0.09224886,1.723768,0.1657191
-7.370093,6.050882,16.81283,1.043414,0.6633043,-1.211626,0.09375012,0.1000777,-0.07440099,1.731104,0.1560133
-7.349254,6.064171,16.78821,1.053045,0.662989,-1.213897,0.10036,0.09357552,-0.05675952,1.738391,0.1484929
-7.328161,6.077464,16.76353,1.062895,0.6626667,-1.215793,0.1069135,0.08709654,-0.03931892,1.745573,0.1433955
-7.306814,6.090762,16.7388,1.072895,0.6623402,-1.217287,0.1134426,0.08063972,-0.02207259,1.752594,0.1409227
-7.285209,6.104064,16.71404,1.08298,0.6620123,-1.218353,0.119907,0.07420694,-0.005029592,1.7594,0.1411016
-7.26335,6.117363,16.68929,1.093082,0.6616642,-1.218965,0.1134728,0.07382625,0.01234024,1.765928,0.1359363
-7.241236,6.13066,16.66455,1.103135,0.6613196,-1.219147,0.1071364,0.07340876,0.02954512,1.772165,0.1331915
-7.218873,6.143953,16.63983,1.113073,0.6609809,-1.218924,0.1008888,0.07295489,0.04658846,1.778089,0.132934
-7.196262,6.157244,16.61515,1.122828,0.6606505,-1.21832,0.09470459,0.07246697,0.06346328,1.783677,0.1350852
-7.173411,6.170532,16.5905,1.132336,0.6603308,-1.217358,0.08863092,0.07194344,0.08017948,1.788906,0.1394993
-7.150347,6.183837,16.56588,1.141578,0.6610025,-1.216057,0.08742958,0.07526744,0.09010545,1.794135,0.1463834
-7.127078,6.19716,16.5413,1.150467,0.661688,-1.214425,0.08622485,0.07853993,0.09993409,1.798954,0.1535906
-7.103611,6.210502,16.51676,1.158965,0.6623877,-1.212468,0.08504893,0.08176044,0.1096723,1.80334,0.161078
-7.079957,6.223863,16.49226,1.167035,0.663102,-1.210188,0.08387769,0.08493034,0.1193194,1.807272,0.1687772
-7.056123,6.237243,16.46782,1.174639,0.6638309,-1.207592,0.0827592,0.08804845,0.1288835,1.810726,0.1766708
-7.032176,6.250566,16.44348,1.181632,0.6615636,-1.204728,0.07069004,0.0807297,0.1193708,1.812537,0.1605109
-7.008122,6.263835,16.41924,1.188166,0.6593082,-1.201599,0.05875195,0.07346858,0.1099629,1.81391,0.1447109
-6.98397,6.277049,16.3951,1.194279,0.6570629,-1.198253,0.04691947,0.06626534,0.1006569,1.814895,0.1293226
-6.959728,6.290207,16.37107,1.200006,0.6548263,-1.194732,0.03521537,0.05911908,0.09145334,1.815543,0.1144504
-6.935402,6.30331,16.34715,1.205382,0.6525973,-1.191081,0.02363,0.05202958,0.08234475,1.815903,0.1002303
-6.911012,6.316377,16.32333,1.210466,0.6512696,-1.187327,0.01801035,0.04380848,0.0683433,1.81635,0.08315264
-6.886562,6.329409,16.29961,1.215287,0.6499472,-1.183507,0.01245372,0.03566672,0.05448645,1.816602,0.06630221
-6.862058,6.342404,16.27598,1.219899,0.6486291,-1.179642,0.006935436,0.02760412,0.040765,1.816708,0.04971794
-6.8375,6.355363,16.25245,1.224353,0.6473141,-1.175752,0.001487495,0.01961938,0.02718577,1.816714,0.03355889
-6.812891,6.368287,16.22902,1.228703,0.6460013,-1.171858,-0.003906679,0.01171193,0.01374613,1.816667,0.01847668
-6.788139,6.381188,16.20569,1.233001,0.6446967,-1.16798,-0.01266648,0.01445113,0.03333656,1.816618,0.03847858
-6.763246,6.394068,16.18247,1.23717,0.6433958,-1.164153,-0.02130297,0.01716162,0.05273755,1.816535,0.05941032
-6.738217,6.406925,16.15934,1.241135,0.6421009,-1.16041,-0.02986495,0.01984424,0.07194505,1.816386,0.08038532
-6.713058,6.41976,16.13631,1.24482,0.6408136,-1.156785,-0.03833834,0.02249943,0.09095649,1.816142,0.101238
-6.687777,6.432574,16.11337,1.248153,0.6395355,-1.153311,-0.04670674,0.02512691,0.1097866,1.815769,0.1219261
-6.662502,6.445304,16.09052,1.251024,0.6359127,-1.150061,-0.05145593,0.02783475,0.08928398,1.814411,0.1067432
-6.63724,6.45795,16.06773,1.253553,0.632298,-1.14701,-0.05617375,0.03048621,0.06898429,1.812961,0.09404112
-6.611995,6.47051,16.04502,1.255818,0.6286899,-1.144177,-0.06087239,0.03308246,0.04888071,1.811483,0.08478928
-6.58677,6.482987,16.02237,1.257897,0.6250872,-1.14158,-0.06555477,0.03562367,0.02898473,1.81004,0.08004116
-6.561567,6.495379,15.99978,1.259865,0.6214889,-1.139237,-0.0702021,0.0381108,0.009286076,1.808693,0.08041766
-6.536354,6.507726,15.97718,1.261811,0.6189844,-1.137154,-0.0571513,0.04995114,0.002354419,1.80788,0.0759403
-6.511129,6.520028,15.95458,1.263749,0.6164822,-1.135295,-0.04423831,0.06166586,-0.004532184,1.80721,0.07602794
-6.485892,6.532283,15.93197,1.265708,0.6139814,-1.133609,-0.03144593,0.07325622,-0.01137452,1.806671,0.08052763
-6.460643,6.544493,15.90934,1.267712,0.6114811,-1.132048,-0.01879665,0.08472353,-0.01817502,1.806249,0.08866636
-6.43538,6.556657,15.88671,1.26979,0.6089807,-1.130563,-0.006288781,0.09606889,-0.02492969,1.805934,0.09944984
-6.410087,6.568801,15.86411,1.271987,0.6083121,-1.129093,-0.01067736,0.08949292,-0.0310647,1.806335,0.09533102
-6.384762,6.580927,15.84157,1.274309,0.6076424,-1.127669,-0.0150406,0.08298404,-0.03712559,1.806857,0.09214597
-6.359403,6.593035,15.81906,1.276778,0.6069713,-1.126308,-0.01937879,0.07654145,-0.043113,1.807525,0.08996034
-6.334005,6.605124,15.7966,1.279418,0.6062984,-1.125026,-0.02368053,0.07016473,-0.04903674,1.808367,0.08881699
-6.308564,6.617195,15.77418,1.282251,0.6056236,-1.123841,-0.02796133,0.06385316,-0.05488892,1.80941,0.08872348
-6.283033,6.629248,15.75176,1.285292,0.6043957,-1.122771,-0.02261646,0.06291606,-0.04526639,1.810493,0.0807402
