x,y,z,vx,vy,vz,ax,ay,az,v_mag,a_mag
0,0,0,0,0,0,0,0,0,0,0
0,0,0,0,0,0,0,0,0,0,0
0,0,0,0,0,0,0,0,0,0,0
1.602012E-05,-0.00392428,-2.738088E-06,0.0008010059,-0.1961876,-0.000141441,0,0,0,0.1961892,0
4.450898E-05,-0.007840618,-6.124377E-06,0.001602012,-0.1958453,-0.000282882,-0.0007475304,-0.000802026,-0.0009662092,0.195852,0.001461372
8.557788E-05,-0.01174954,-1.014769E-05,0.002406816,-0.195503,-0.0004272617,-0.001487614,-0.001596032,-0.001922785,0.1955183,0.002908163
0.0001394135,-0.01565105,-1.494959E-05,0.003219177,-0.1951607,-0.000577488,-0.00222039,-0.00238206,-0.002869638,0.1951881,0.004340411
0.0002062759,-0.01954517,-2.072379E-05,0.004042819,-0.1948184,-0.0007364419,-0.00294603,-0.003160303,-0.003807051,0.1948617,0.005758493
0.0002864987,-0.02343187,-2.773106E-05,0.004881426,-0.1944761,-0.0009069719,-0.003664094,-0.003930726,-0.004735036,0.1945395,0.007162176
0.0003607931,-0.0273078,-4.060939E-05,0.005738711,-0.1939108,-0.001091948,-0.00295096,-0.008332491,-0.01121581,0.1939988,0.01428051
0.0004302722,-0.03117298,-5.958974E-05,0.00664014,-0.1933455,-0.001288524,-0.002244844,-0.01269073,-0.0176316,0.1934638,0.02183958
0.0004965528,-0.03502728,-8.483231E-05,0.007610964,-0.1927802,-0.0014939,-0.001545946,-0.01700572,-0.02398283,0.1929362,0.0294408
0.00056175,-0.03887074,-0.0001164712,0.008676185,-0.1922151,-0.001705285,-0.0008539232,-0.02127821,-0.03027014,0.1924184,0.03701045
0.000628471,-0.0427033,-0.0001545697,0.009860552,-0.1916502,-0.001919893,-0.0001687615,-0.02550851,-0.03649445,0.1919133,0.04452591
0.0007018846,-0.04651225,-0.0002248846,0.01119114,-0.1901246,-0.00213529,0.008974047,-0.03056019,-0.04177481,0.1904657,0.05253184
0.0007855194,-0.0502973,-0.0003264919,0.01268694,-0.1885996,-0.002314828,0.01802442,-0.03556801,-0.0469978,0.18904,0.06163405
0.0008833189,-0.05405852,-0.0004576966,0.01436859,-0.1870753,-0.002422531,0.0269836,-0.04053247,-0.052164,0.1876419,0.0713588
0.0009996394,-0.05779567,-0.0006161518,0.01625644,-0.1855521,-0.002422737,0.03585182,-0.0454537,-0.05727398,0.1862786,0.08143526
0.001139242,-0.06150857,-0.0007987954,0.01837057,-0.1840304,-0.002280088,0.0446305,-0.05033215,-0.06232823,0.1849591,0.09170613
0.001337401,-0.06509805,-0.0009733737,0.02076719,-0.1778934,-0.001948724,0.04419395,-0.03881735,-0.06173578,0.179112,0.08527131
0.001598967,-0.06856416,-0.001136251,0.02341319,-0.171759,-0.001437194,0.04377538,-0.0274177,-0.06113938,0.1733534,0.08003773
0.001928744,-0.07190696,-0.00128381,0.02630617,-0.1656277,-0.0007474518,0.04337435,-0.01613201,-0.06053935,0.1677054,0.07620098
0.002331494,-0.0751266,-0.001412496,0.02944383,-0.1594999,0.0001185115,0.04299096,-0.004959365,-0.05993569,0.1621948,0.07392635
0.002811933,-0.0782232,-0.00151879,0.03282389,-0.1533759,0.001158672,0.04262465,0.00610163,-0.05932865,0.1568532,0.07330743
0.003413063,-0.08114709,-0.001576874,0.03647557,-0.1450023,0.002386053,0.03498374,0.01401325,-0.04559568,0.1495387,0.05915403
0.004138157,-0.08389847,-0.001584157,0.04031419,-0.1366324,0.003755734,0.02742984,0.02184322,-0.03199245,0.1425053,0.04746619
0.004989392,-0.08647759,-0.00153866,0.04428438,-0.1282653,0.005236277,0.01996227,0.02959229,-0.01851783,0.1357958,0.04021326
0.005967862,-0.08888459,-0.00143908,0.04833131,-0.1199001,0.00679659,0.01258025,0.03726127,-0.005170687,0.1294532,0.03966611
0.007073581,-0.09111964,-0.001284704,0.05240069,-0.1115356,0.008405941,0.005282884,0.04485102,0.008050392,0.1235179,0.04587299
0.008282556,-0.09319864,-0.001082782,0.05642721,-0.1038972,0.0100277,0.0002525513,0.04177762,0.01625995,0.1186559,0.04483101
0.009593287,-0.09512147,-0.0008335598,0.06038892,-0.09625778,0.01164783,-0.004719831,0.03873333,0.02439169,0.1142281,0.04601632
0.01100361,-0.09688818,-0.0005376153,0.06425256,-0.08861668,0.0132463,-0.009634778,0.03571774,0.03244635,0.1102578,0.04920723
0.01251068,-0.09849872,-0.0001959652,0.06798515,-0.0809733,0.01480335,-0.01449264,0.03273069,0.04042418,0.1067604,0.0539949
0.01411103,-0.09995286,0.0001899861,0.07155403,-0.07332714,0.01629946,-0.01929442,0.02977207,0.04832666,0.1037426,0.05995095
0.01576849,-0.101286,0.0005967021,0.07490766,-0.0671993,0.0177037,-0.01704488,0.01963821,0.04752494,0.1021779,0.05417386
0.01747933,-0.102498,0.001022886,0.07806958,-0.06106858,0.019038,-0.01480875,0.009607614,0.04673369,0.1009291,0.04995641
0.01923986,-0.1035887,0.001467437,0.08104268,-0.05493534,0.02031194,-0.01258575,-0.0003209376,0.04595279,0.09999191,0.04764623
0.02104644,-0.1045583,0.001929432,0.08382982,-0.04879983,0.02153498,-0.0103762,-0.01014824,0.04518214,0.09936105,0.04745607
0.02289552,-0.1054066,0.002408139,0.08643386,-0.04266234,0.0227164,-0.008179829,-0.01987546,0.04442189,0.09902991,0.04934823
0.02477406,-0.1061359,0.002912462,0.08885576,-0.03675525,0.02386394,-0.009065781,-0.02293904,0.03894508,0.09907462,0.04609888
0.02667908,-0.1067461,0.003441639,0.09111966,-0.03084673,0.02497553,-0.009937968,-0.02597372,0.0335234,0.09938858,0.04355704
0.02860805,-0.1072374,0.003994852,0.09324743,-0.02493703,0.02604768,-0.01079649,-0.02897953,0.02815574,0.0999771,0.04182252
0.03055887,-0.1076096,0.004571185,0.0952607,-0.01902637,0.02707693,-0.01164206,-0.03195686,0.02284225,0.1008452,0.04097007
0.03252983,-0.107863,0.005169701,0.09718091,-0.0131149,0.02805986,-0.01247404,-0.03490597,0.01758201,0.1019975,0.04102628
0.0345219,-0.1080198,0.005775541,0.09902432,-0.008161813,0.02898803,-0.00880265,-0.03731436,0.01300176,0.1035024,0.04048326
0.03653417,-0.1080803,0.006388152,0.1008146,-0.003208295,0.02988155,-0.005163428,-0.03969852,0.008470521,0.1051988,0.04091923
0.03856613,-0.1080443,0.007007202,0.1025701,0.001745522,0.03075507,-0.001556878,-0.04205853,0.003987583,0.1070959,0.04227582
0.0406176,-0.1079118,0.007632665,0.1043086,0.006699413,0.03162312,0.002017673,-0.04439501,-0.0004475968,0.1092025,0.04444309
0.04268879,-0.1076828,0.008264793,0.106048,0.01165326,0.03250012,0.005560517,-0.04670783,-0.004835445,0.1115269,0.04728554
0.04479798,-0.1073365,0.008913599,0.1078104,0.01753262,0.03340517,0.006035374,-0.04396969,-0.004609534,0.1142207,0.0446207
0.04694551,-0.1068731,0.009579599,0.1095904,0.02341174,0.03433547,0.006505501,-0.041259,-0.004385159,0.1172053,0.04199829
0.04913168,-0.1062924,0.01026335,0.1113872,0.02929063,0.03529287,0.006970837,-0.03857569,-0.004162417,0.1204601,0.03942083
0.05135678,-0.1055945,0.01096546,0.1132001,0.03516927,0.03627921,0.007431824,-0.03591909,-0.003941213,0.123965,0.03689101
0.05362111,-0.1047794,0.01168657,0.115028,0.04104768,0.03729632,0.007887936,-0.03328937,-0.003721562,0.1277003,0.03441295
0.05594393,-0.1038378,0.01243478,0.1168721,0.04730405,0.03834824,0.005908184,-0.03039284,0.002666897,0.1317852,0.03107641
0.05832481,-0.1027697,0.01321057,0.1187047,0.05356033,0.0394247,0.00394422,-0.0275261,0.008990503,0.1360655,0.02922452
0.06076279,-0.1015753,0.01401424,0.1205002,0.0598167,0.04051768,0.001996033,-0.02468887,0.01525012,0.1404992,0.02908764
0.06325639,-0.1002544,0.01484591,0.1222334,0.06607331,0.04161923,6.325376E-05,-0.02188087,0.02144624,0.1450477,0.0306385
0.06580365,-0.09880701,0.01570555,0.1238792,0.07233031,0.04272142,-0.001854053,-0.01910172,0.02757953,0.1496758,0.03359975
0.0684039,-0.09724597,0.01660527,0.12541,0.07779582,0.04381156,-0.007851836,-0.01924477,0.03496194,0.1539458,0.0406737
0.07105403,-0.09557121,0.01754429,0.1267993,0.08326198,0.0448703,-0.01379232,-0.01938946,0.04226812,0.1581896,0.04850539
0.07375041,-0.09378271,0.01852133,0.1280176,0.08872889,0.0458736,-0.01967617,-0.01953557,0.04949918,0.1623753,0.05673587
0.07648878,-0.0918804,0.01953462,0.129036,0.09419654,0.04679767,-0.0255037,-0.01968312,0.05665555,0.1664731,0.0651745
0.07926431,-0.08986421,0.02058197,0.1298254,0.09966482,0.04761893,-0.03127553,-0.01983211,0.0637382,0.1704561,0.07371587
0.08204751,-0.08779757,0.02164387,0.1303613,0.1021639,0.04830167,-0.0315702,-0.02755699,0.06467039,0.1725242,0.07706053
0.08483324,-0.08568043,0.02271783,0.1306399,0.1046629,0.04885874,-0.03185245,-0.03520443,0.06559808,0.1743797,0.08097554
0.08761629,-0.08351284,0.02380131,0.1306573,0.1071614,0.04928878,-0.03212274,-0.04277521,0.06652106,0.1760235,0.08536182
0.09039137,-0.08129484,0.02489178,0.13041,0.109659,0.04959039,-0.03238096,-0.05026987,0.06743956,0.1774573,0.09013147
0.09315311,-0.07902637,0.02598662,0.1298943,0.1121553,0.04976214,-0.03262786,-0.05768943,0.06835318,0.178683,0.09520927
0.09587801,-0.07675221,0.02707898,0.1291241,0.1124744,0.04980057,-0.03148635,-0.06388129,0.06290451,0.1783357,0.09502203
0.09856133,-0.07447241,0.02816635,0.1281065,0.1127914,0.04971309,-0.03034178,-0.07001323,0.05751547,0.1777768,0.09555367
0.1011988,-0.07218711,0.02924627,0.126863,0.1131061,0.04950366,-0.0291938,-0.07608589,0.05218564,0.1770249,0.09677128
0.1037864,-0.06989637,0.03031637,0.1254145,0.1134186,0.04917623,-0.02804316,-0.08209967,0.04691439,0.176099,0.09862928
0.1063208,-0.06760029,0.03137434,0.123782,0.1137287,0.04873475,-0.02688977,-0.08805505,0.04170133,0.1750179,0.101073
0.1087976,-0.06533471,0.03241111,0.1220087,0.11234,0.0481867,-0.0234836,-0.09048771,0.03504707,0.1727089,0.09983888
0.1112141,-0.06309962,0.03342481,0.1200997,0.1109493,0.04754238,-0.02009802,-0.09289676,0.02846666,0.1702761,0.09921739
0.1135685,-0.06089509,0.03441378,0.1180807,0.1095567,0.04681462,-0.01673257,-0.09528236,0.02195954,0.1677419,0.09920146
0.1158594,-0.05872109,0.03537662,0.1159775,0.1081627,0.04601622,-0.01338793,-0.09764494,0.01552451,0.1651286,0.09977365
0.1180858,-0.05657776,0.03631221,0.113815,0.1067676,0.04515993,-0.01006362,-0.09998457,0.009161019,0.162458,0.1009065
0.1202609,-0.0544704,0.03722662,0.111624,0.1050099,0.04425989,-0.00906848,-0.09729351,0.00602058,0.1595178,0.09790052
0.1223843,-0.05239903,0.03811904,0.109411,0.1032517,0.04331874,-0.008077526,-0.09462977,0.002912445,0.1565509,0.09501854
0.124456,-0.05036368,0.03898874,0.1071882,0.1014932,0.04234046,-0.0070908,-0.09199328,-0.000162603,0.1535673,0.0922663
0.1264759,-0.04836427,0.03983504,0.1049677,0.09973456,0.04132905,-0.006108697,-0.08938365,-0.00320567,0.1505765,0.08964948
0.1284446,-0.04640077,0.04065737,0.1027612,0.09797601,0.0402885,-0.0051306,-0.08680045,-0.006216939,0.1475884,0.08717392
0.1303754,-0.04447892,0.0414563,0.100585,0.09592377,0.0392242,-0.00448505,-0.08349174,-0.005194114,0.1444204,0.08377329
0.1322688,-0.04259847,0.04223138,0.09843047,0.09387176,0.03813752,-0.00384764,-0.08021615,-0.004180904,0.1412619,0.08041713
0.1341249,-0.04075957,0.0429823,0.09629373,0.0918199,0.03703118,-0.003217667,-0.07697339,-0.003177098,0.1381111,0.0771061
0.1359441,-0.03896224,0.04370874,0.09417083,0.08976819,0.03590784,-0.002595242,-0.07376318,-0.002182623,0.1349661,0.07384108
0.1377265,-0.03720631,0.04441044,0.09205786,0.08771653,0.03477012,-0.001980585,-0.07058495,-0.001197444,0.1318249,0.07062288
0.1394786,-0.03549234,0.04509639,0.08995301,0.08552803,0.0336213,-0.004380629,-0.06743247,0.001867858,0.1285962,0.06760042
0.1412001,-0.03382029,0.0457661,0.08784228,0.08333932,0.03245157,-0.006760845,-0.06431151,0.004898832,0.1253587,0.0648512
0.1428905,-0.03219015,0.04641894,0.08571389,0.08115019,0.03125185,-0.009121551,-0.06122138,0.007896276,0.122102,0.06239881
0.1445491,-0.0306019,0.04705406,0.08355618,0.07896037,0.03001313,-0.01146284,-0.05816211,0.01086016,0.1188157,0.06026749
0.1461749,-0.02905577,0.04767051,0.08135763,0.07676966,0.02872647,-0.01378478,-0.05513317,0.01379095,0.1154896,0.05847972
0.1477594,-0.02757698,0.04826263,0.07912593,0.07336576,0.0273905,-0.01457679,-0.05550642,0.01498594,0.1113269,0.05931293
0.1493014,-0.02616568,0.04882923,0.07683782,0.06996061,0.02599493,-0.01536181,-0.05587574,0.01616829,0.107118,0.06016225
0.1507995,-0.02482192,0.04936901,0.0744888,0.06655402,0.02453665,-0.01614029,-0.05624136,0.01733844,0.1028595,0.0610264
0.1522526,-0.02354567,0.04988068,0.07207446,0.06314592,0.02301255,-0.01691204,-0.05660326,0.018496,0.09854802,0.06190354
0.1536591,-0.02233697,0.05036281,0.0695904,0.05973612,0.02141958,-0.01767738,-0.05696131,0.01964114,0.09418081,0.06279216
0.1550058,-0.02121964,0.05080993,0.0670521,0.05518921,0.01976363,-0.0170522,-0.05826985,0.01698851,0.08906421,0.06304572
0.1562913,-0.02019383,0.05122066,0.06445048,0.05064061,0.0180384,-0.01642958,-0.05956599,0.01436396,0.08392687,0.06343786
0.1575148,-0.01925948,0.05159366,0.06179574,0.0460905,0.01624611,-0.01580972,-0.06084996,0.01176663,0.07878441,0.06396185
0.1586754,-0.01841664,0.05192763,0.05909795,0.04153901,0.01438899,-0.01519273,-0.06212165,0.009196522,0.07365528,0.06461032
0.1597727,-0.01766536,0.05222129,0.05636708,0.03698637,0.01246928,-0.01457853,-0.0633812,0.006653205,0.06856181,0.06537564
0.1608003,-0.01702236,0.05246589,0.05362657,0.03170106,0.01049622,-0.01141973,-0.06355251,0.00181471,0.06317387,0.06459586
0.1617583,-0.0164874,0.05266046,0.0508815,0.02641517,0.00847506,-0.00828653,-0.06372298,-0.002971248,0.05795269,0.06432816
0.1626472,-0.01606071,0.0528044,0.04815019,0.02112919,0.006417749,-0.00517879,-0.06389275,-0.00770558,0.05297237,0.06456377
0.1634677,-0.01574211,0.05289724,0.04545077,0.01584354,0.004336171,-0.002096067,-0.0640617,-0.0123886,0.04832797,0.06528226
0.164221,-0.0155316,0.05293881,0.04280114,0.01055868,0.002242135,0.0009617643,-0.06423002,-0.01702064,0.04414126,0.06645391
0.164915,-0.01541863,0.05293255,0.04021053,0.005753204,0.0001424903,0.00285071,-0.06059563,-0.0204807,0.04062027,0.06402668
0.1655513,-0.01540318,0.05287865,0.03770068,0.0009491891,-0.001950304,0.004726583,-0.05699842,-0.02390346,0.03776302,0.0619882
0.1661317,-0.01548514,0.05277743,0.03528454,-0.003853083,-0.004028727,0.006589076,-0.05343753,-0.02728939,0.0357222,0.06036304
0.1666587,-0.01566446,0.0526294,0.03297492,-0.008653358,-0.006085312,0.008438274,-0.049913,-0.0306396,0.03463029,0.05917175
0.1671346,-0.01594099,0.05243516,0.03078448,-0.01345144,-0.008112642,0.01027455,-0.0464242,-0.03395372,0.03456068,0.05842626
0.1675724,-0.01629728,0.05219736,0.02871301,-0.01739541,-0.01011159,0.01144823,-0.04144388,-0.03417092,0.03506111,0.05492093
0.1679747,-0.01673321,0.05191687,0.02677445,-0.02133705,-0.01206884,0.01261383,-0.03651412,-0.03438424,0.03630148,0.05171717
0.1683441,-0.01724879,0.05159471,0.0249694,-0.02527638,-0.01397955,0.01377145,-0.03163438,-0.03459329,0.03818107,0.04885778
0.1686834,-0.0178438,0.0512319,0.02329847,-0.02921349,-0.01583891,0.01492041,-0.02680423,-0.03479815,0.0405847,0.04638961
0.1689951,-0.0185184,0.05082966,0.02176224,-0.03314844,-0.0176422,0.01606175,-0.02202306,-0.03499887,0.04340117,0.0443612
0.1692896,-0.01924807,0.0503955,0.02034832,-0.03594708,-0.01939417,0.01506271,-0.01703048,-0.0326367,0.04563311,0.03977533
0.1695694,-0.02003305,0.04993061,0.01906116,-0.03874384,-0.02108861,0.01407647,-0.01208786,-0.03029672,0.04805354,0.03552682
0.1698367,-0.02087308,0.049436,0.01789156,-0.04153895,-0.0227291,0.01310206,-0.007194629,-0.02797897,0.05061822,0.03172143
0.1700935,-0.02176826,0.04891269,0.01683039,-0.04433258,-0.02431918,0.01213964,-0.00235037,-0.02568332,0.05329223,0.02850488
0.1703418,-0.02271858,0.04836158,0.01586862,-0.04712495,-0.02586239,0.01118937,0.002445372,-0.02340968,0.05604853,0.02606137
0.1705826,-0.02371234,0.04778376,0.01499231,-0.04933512,-0.02736632,0.01011773,0.005046716,-0.02075575,0.05837499,0.02363554
0.1708175,-0.02474958,0.04717998,0.01419639,-0.05154432,-0.02883083,0.009058272,0.007622009,-0.01812771,0.06074185,0.0216509
0.1710477,-0.02583018,0.04655091,0.01347059,-0.05375274,-0.03025997,0.008010728,0.01017144,-0.01552569,0.06313857,0.02021576
0.1712744,-0.02695426,0.04589715,0.01280477,-0.05596046,-0.03165771,0.006975221,0.01269525,-0.01294903,0.0655572,0.01942937
0.1714986,-0.02812182,0.04521921,0.01218887,-0.05816765,-0.03302804,0.005951104,0.01519368,-0.01039739,0.06799188,0.01934863
0.171714,-0.02932724,0.0445167,0.01161093,-0.0600905,-0.03437661,0.005170274,0.01588256,-0.009614004,0.07019567,0.01927217
0.1719215,-0.03057055,0.04379002,0.01106996,-0.06201297,-0.03570466,0.004397524,0.01656455,-0.008838005,0.07240839,0.01928296
0.1721218,-0.03185171,0.04303947,0.01056293,-0.0639351,-0.0370152,0.003632988,0.01723967,-0.00806943,0.0746284,0.01937835
0.1723153,-0.03317077,0.04226534,0.01008686,-0.06585692,-0.03831116,0.002876515,0.01790835,-0.007308332,0.07685456,0.01955493
0.1725027,-0.03452769,0.04146783,0.009638771,-0.06777848,-0.03959551,0.002127799,0.01857038,-0.006554557,0.07908624,0.0198078
0.1726768,-0.03592175,0.04064101,0.009215033,-0.06958982,-0.04087177,0.003367053,0.01812757,-0.008028188,0.08122907,0.02010964
0.1728382,-0.03735291,0.0397852,0.008822095,-0.0714009,-0.04213449,0.004593228,0.01768919,-0.009487546,0.08337405,0.02059171
0.1729878,-0.03882118,0.03890081,0.008465647,-0.07321163,-0.04337895,0.005806354,0.01725496,-0.01093277,0.08551808,0.02123612
0.1731264,-0.04032645,0.03798832,0.008151324,-0.07502201,-0.04460045,0.007006751,0.01682496,-0.01236396,0.08765812,0.02202366
0.1732551,-0.04186883,0.03704834,0.007884707,-0.07683198,-0.04579433,0.0081947,0.0163993,-0.01378125,0.0897911,0.02293498
0.1733744,-0.04343437,0.0360811,0.007667688,-0.07794428,-0.04695968,0.009514307,0.01743021,-0.01568684,0.09131985,0.02530635
0.1734856,-0.04502305,0.03508741,0.007511521,-0.07905607,-0.04808756,0.01082021,0.01845077,-0.01757359,0.09283695,0.02768283
0.1735902,-0.0466349,0.03406816,0.007423561,-0.08016732,-0.04917288,0.01211303,0.01946098,-0.01944188,0.09433918,0.0300573
0.1736897,-0.04826979,0.03302432,0.007411096,-0.08127803,-0.05021061,0.01339228,0.02046119,-0.02129132,0.09582353,0.03242428
0.1737858,-0.04992773,0.03195701,0.007481345,-0.08238815,-0.05119578,0.01465837,0.02145125,-0.02312286,0.09728713,0.0347806
0.1738862,-0.05158807,0.03086869,0.007638122,-0.08248231,-0.05212755,0.01548418,0.02376877,-0.02330184,0.09787213,0.0367109
0.1739928,-0.05325098,0.02976062,0.007885925,-0.08257595,-0.05299831,0.01630288,0.02606288,-0.02347866,0.09843676,0.0386821
0.1741074,-0.05491631,0.02863411,0.008225446,-0.08266911,-0.05380487,0.01711428,0.02833371,-0.0236536,0.0989788,0.04068403
0.1742318,-0.05658405,0.02749051,0.008657375,-0.08276188,-0.05454407,0.01791846,0.03058157,-0.02382633,0.0994964,0.04270828
0.1743678,-0.05825417,0.02633127,0.009182405,-0.08285429,-0.0552128,0.01871582,0.03280668,-0.02399701,0.09998801,0.04474837
0.1745246,-0.05990266,0.02516289,0.009800159,-0.08179717,-0.05581063,0.01785257,0.03546991,-0.02191624,0.09950702,0.04535582
0.1747036,-0.06152935,0.02398671,0.01050407,-0.08073983,-0.05633795,0.01700003,0.03810613,-0.01985473,0.09901121,0.04620918
0.1749065,-0.06313433,0.02280405,0.01128604,-0.07968234,-0.05679815,0.01615883,0.04071553,-0.01781229,0.09850217,0.04728784
0.1751345,-0.06471765,0.02161616,0.01213805,-0.07862476,-0.05719462,0.01532874,0.04329861,-0.01578872,0.09798168,0.04856978
0.1753888,-0.06627931,0.02042419,0.01305214,-0.07756715,-0.05753069,0.01450927,0.04585533,-0.01378353,0.09745153,0.05003215
0.1756721,-0.06780557,0.01923069,0.01402103,-0.07583855,-0.05781013,0.01319603,0.04679282,-0.01083819,0.09638509,0.04981134
0.1759852,-0.06929638,0.01803662,0.01503271,-0.07410997,-0.0580375,0.01189876,0.04772051,-0.007920708,0.09532378,0.04981531
0.1763286,-0.07075182,0.01684286,0.01607568,-0.07238141,-0.058218,0.0106175,0.04863847,-0.005031031,0.09426999,0.05003742
0.1767026,-0.07217183,0.01565021,0.01713855,-0.07065287,-0.05835671,0.009351754,0.04954673,-0.002168833,0.09322587,0.05046819
0.1771074,-0.07355656,0.01445934,0.01821003,-0.06892435,-0.05845866,0.00810154,0.05044534,0.0006659923,0.0921932,0.05109609
0.1775385,-0.07490116,0.01327099,0.01927924,-0.06696349,-0.05852874,0.006779561,0.0495456,0.002532332,0.09100226,0.05007136
0.1779957,-0.07620567,0.01208566,0.0203385,-0.06500264,-0.05857221,0.005472338,0.04865447,0.004380907,0.08983152,0.04915686
0.1784786,-0.07747002,0.01090369,0.02138051,-0.06304176,-0.05859423,0.004179956,0.04777207,0.006212091,0.08868299,0.04835528
0.1789867,-0.07869428,0.009725403,0.02239801,-0.06108087,-0.05859991,0.002902769,0.04689815,0.008026078,0.08755852,0.04766845
0.1795193,-0.07987843,0.008550959,0.02338385,-0.05911994,-0.05859428,0.001639875,0.04603267,0.009823244,0.08645959,0.04709769
0.1800686,-0.08102657,0.007376431,0.02433077,-0.05731896,-0.05858242,0.001687039,0.04376655,0.009626749,0.08549473,0.04484452
0.1806337,-0.08213879,0.006201975,0.02523971,-0.05551797,-0.05856399,0.001734318,0.04152286,0.009432278,0.08455193,0.042616
0.1812139,-0.08321487,0.005027696,0.02611144,-0.05371699,-0.05853877,0.001781075,0.0393018,0.009239744,0.08363079,0.04041258
0.1818086,-0.08425507,0.003853798,0.02694671,-0.051916,-0.05850654,0.001827945,0.03710302,0.009049103,0.08273096,0.0382343
0.1824171,-0.08525917,0.00268038,0.02774629,-0.05011502,-0.05846708,0.001874064,0.03492616,0.008859933,0.08185213,0.03608112
0.1830353,-0.08622759,0.001505699,0.0285109,-0.04830331,-0.05842017,0.002571013,0.03325005,0.007451326,0.08098764,0.0341716
0.1836627,-0.08716018,0.0003299415,0.02924614,-0.04649159,-0.05836305,0.003260047,0.03159066,0.006056312,0.08014394,0.03233073
0.1842989,-0.08805698,-0.0008465797,0.02995753,-0.04467991,-0.05829297,0.003941359,0.0299482,0.004674466,0.07932098,0.03056599
0.1849435,-0.088918,-0.002023529,0.03065053,-0.04286827,-0.05820723,0.004615413,0.02832228,0.003305959,0.07851894,0.02888569
0.1855963,-0.08974323,-0.003200512,0.03133058,-0.04105666,-0.05810313,0.005281944,0.02671292,0.001950689,0.0777382,0.0272999
0.1862599,-0.0905278,-0.00437722,0.03200288,-0.03900003,-0.05797773,0.006004369,0.0263141,0.001145848,0.07685443,0.02701476
0.1869341,-0.09127179,-0.005553138,0.03267078,-0.03694344,-0.05782845,0.006719256,0.02591943,0.0003485386,0.07600215,0.02677847
0.1876189,-0.0919752,-0.006727695,0.03333746,-0.03488688,-0.05765246,0.007426634,0.02552896,-0.0004410711,0.07518169,0.02659092
0.1883144,-0.09263793,-0.007900316,0.03400606,-0.03283037,-0.05744696,0.008126443,0.0251424,-0.001223115,0.07439353,0.02645138
0.1890207,-0.09326002,-0.009070303,0.03467969,-0.03077392,-0.05720916,0.0088185,0.02475978,-0.001997961,0.07363833,0.02635914
0.1897438,-0.09383264,-0.01023353,0.03536119,-0.0283154,-0.0569355,0.008399244,0.02534551,-0.001096164,0.07275869,0.02672347
0.1904838,-0.09435581,-0.01138934,0.03604727,-0.02585691,-0.05662842,0.007984868,0.02592513,-0.0002026081,0.07193583,0.02712769
0.1912406,-0.09482952,-0.01253712,0.0367344,-0.0233985,-0.05628955,0.007575005,0.02649898,0.0006820107,0.07117176,0.02756886
0.1920142,-0.09525387,-0.01367626,0.03741908,-0.02094017,-0.05592052,0.00716985,0.02706683,0.001557999,0.07046831,0.02804367
0.1928045,-0.09562871,-0.01480624,0.03809785,-0.01848191,-0.05552294,0.006769051,0.02762886,0.002425627,0.0698271,0.02854921
0.1936141,-0.09595171,-0.01592469,0.03876723,-0.01592512,-0.05509812,0.005764254,0.02756508,0.004412455,0.06922652,0.02850491
0.1944427,-0.09622291,-0.01703118,0.03941938,-0.01336841,-0.05465031,0.004770582,0.02750159,0.006380098,0.06869686,0.02863218
0.1952897,-0.09644231,-0.01812537,0.04004651,-0.01081178,-0.05418345,0.00378775,0.02743829,0.008328699,0.06823829,0.02892359
0.1961544,-0.09660989,-0.01920698,0.04064087,-0.008255213,-0.05370143,0.00281596,0.02737551,0.01025861,0.06785037,0.02936983
0.1970359,-0.09672575,-0.02027584,0.04119479,-0.005698726,-0.05320809,0.001854947,0.02731298,0.01216943,0.06753212,0.02995888
0.1979312,-0.09679517,-0.02133135,0.04170111,-0.003420547,-0.05270813,0.0007278585,0.02603019,0.0136757,0.06729658,0.02941301
0.1988391,-0.09681819,-0.02237348,0.04215347,-0.001142457,-0.05220512,-0.0003868782,0.02475981,0.01516782,0.06710882,0.02903895
0.1997584,-0.09679487,-0.0234023,0.04254595,0.001135513,-0.05170345,-0.001489374,0.02350187,0.01664531,0.06696785,0.02883787
0.2006878,-0.09672517,-0.02441795,0.04287266,0.003413364,-0.05120748,-0.00257957,0.02225625,0.01810886,0.06687243,0.02880843
0.2016257,-0.09660915,-0.02542067,0.04312778,0.005691066,-0.05072153,-0.003657736,0.0210227,0.01955823,0.06682116,0.02894576
0.2025652,-0.09645981,-0.02641336,0.04330748,0.007344574,-0.05025178,-0.003894351,0.01873394,0.0194477,0.0667437,0.02728259
0.2035047,-0.09627727,-0.02739633,0.04341045,0.008997887,-0.04979719,-0.004127594,0.01646795,0.01933838,0.06667225,0.02573331
0.2044427,-0.09606135,-0.02836992,0.0434371,0.01065095,-0.04935869,-0.004357995,0.01422435,0.01923076,0.06660709,0.0243135
0.2053777,-0.09581223,-0.02933445,0.04338782,0.01230375,-0.0489372,-0.004585098,0.01200312,0.01912433,0.06654874,0.02303992
0.2063082,-0.09552987,-0.03029029,0.043263,0.01395629,-0.04853364,-0.004809143,0.009803982,0.01901895,0.06649797,0.02193095
0.2072289,-0.0952263,-0.03123993,0.04306595,0.0150321,-0.04815046,-0.004344113,0.007872427,0.01755558,0.06632577,0.01972422
0.2081384,-0.0949015,-0.03218369,0.04279972,0.0161076,-0.04778425,-0.003883585,0.005960074,0.01610698,0.06614081,0.01760794
0.2090355,-0.09455553,-0.03312186,0.04247,0.0171828,-0.04743323,-0.003426966,0.004066996,0.01467264,0.0659459,0.01560676
0.2099192,-0.09418829,-0.0340547,0.04208244,0.01825765,-0.04709564,-0.002974843,0.002193038,0.01325283,0.065744,0.01375851
0.2107883,-0.09379999,-0.03498239,0.04164261,0.01933223,-0.04676973,-0.002526598,0.0003375166,0.01184758,0.06553815,0.01211869
0.2116299,-0.09340736,-0.03591539,0.04052384,0.01956952,-0.04691323,-0.0017403,-0.000431403,0.01032825,0.06500768,0.01048273
0.2124431,-0.09301065,-0.03685375,0.03936439,0.01980655,-0.04706358,-0.0009613969,-0.001192482,0.008824415,0.06447352,0.008956372
0.2132273,-0.09260972,-0.03779755,0.03817018,0.02004336,-0.04721776,-0.000190092,-0.001946027,0.007335528,0.06393915,0.007591648
0.2139821,-0.09220465,-0.03874678,0.03694706,0.02027996,-0.04737273,0.0005735091,-0.002691846,0.005861567,0.06340771,0.006475563
0.2147069,-0.09179542,-0.03970138,0.03570084,0.02051638,-0.04752553,0.001329886,-0.003430019,0.004402517,0.06288201,0.005737228
0.2154053,-0.09138349,-0.04065932,0.03443795,0.02065437,-0.0476734,0.001458911,-0.002998426,0.003928812,0.06233241,0.00515311
0.2160771,-0.09096891,-0.04162049,0.03315958,0.02079223,-0.04781562,0.001586489,-0.002571149,0.003459704,0.06179166,0.00459318
0.2167219,-0.09055163,-0.04258476,0.03186757,0.02092999,-0.04795168,0.001712544,-0.002148144,0.002995441,0.06126149,0.004064479
0.2173396,-0.09013166,-0.04355201,0.03056375,0.02106763,-0.04808105,0.001837667,-0.001729445,0.002535896,0.06074352,0.003577537
0.2179299,-0.08970907,-0.04452205,0.02924993,0.02120517,-0.04820324,0.001961855,-0.001314744,0.002080936,0.06023927,0.003147654
0.2184955,-0.0892864,-0.04549371,0.02792897,0.02120133,-0.0483181,0.001737996,-0.0008271864,0.0024912,0.05970061,0.003148165
0.219036,-0.08886365,-0.04646685,0.02659821,0.02119738,-0.04842614,0.001516505,-0.0003445421,0.002897401,0.05917673,0.003288378
0.2195512,-0.08844083,-0.04744136,0.02525605,0.02119333,-0.04852824,0.001297266,0.000133238,0.003299768,0.05866869,0.003548115
0.220041,-0.0880179,-0.04841714,0.02390091,0.02118915,-0.04862522,0.001079978,0.0006062404,0.003697852,0.05817771,0.003899742
0.2205048,-0.08759493,-0.04939411,0.02253123,0.02118486,-0.04871794,0.0008649628,0.001074362,0.004092187,0.05770522,0.00431838
0.2209424,-0.08717635,-0.05037172,0.02114729,0.02095026,-0.04880782,0.0004835676,0.001142246,0.004506994,0.05716926,0.004674565
0.2213531,-0.08676212,-0.05134996,0.01974565,0.02071549,-0.04889576,0.0001058159,0.001209376,0.004917734,0.05665525,0.005065362
0.2217368,-0.08635237,-0.05232879,0.0183247,0.02048059,-0.04898325,-0.0002678585,0.001275834,0.005324474,0.0561659,0.005481745
0.2220929,-0.08594704,-0.05330827,0.01688285,0.02024551,-0.04907176,-0.0006377827,0.001341628,0.005726995,0.05570411,0.00591652
0.222421,-0.08554615,-0.05428845,0.01541851,0.02001025,-0.04916272,-0.00100423,0.001406651,0.006125875,0.05527308,0.00636502
0.2227181,-0.08515687,-0.05527047,0.01393304,0.01942706,-0.04925848,-0.001031411,0.001040496,0.005803552,0.05475343,0.00598562
0.2229837,-0.08477926,-0.05625441,0.01242483,0.01884373,-0.04935825,-0.001058429,0.0006780413,0.005484483,0.05427429,0.005626684
0.2232176,-0.08441328,-0.05724035,0.01089512,0.0182602,-0.04946214,-0.001084909,0.0003190599,0.005168637,0.05383904,0.005290901
0.2234193,-0.08405895,-0.05822837,0.00934514,0.0176765,-0.04957028,-0.001111268,-3.621852E-05,0.004856087,0.05345095,0.004981747
0.2235883,-0.08371629,-0.05921857,0.007776116,0.01709265,-0.04968278,-0.00113724,-0.0003880197,0.004546482,0.05311314,0.004702592
0.2237221,-0.08339141,-0.06021228,0.006191863,0.01621728,-0.04980047,-0.000755918,-0.0006131872,0.003419911,0.05273923,0.003555728
0.2238204,-0.0830843,-0.06120956,0.004594213,0.01534179,-0.04992115,-0.0003784399,-0.0008360653,0.002304594,0.05242708,0.0024806
0.223883,-0.08279496,-0.06221042,0.00298753,0.01446623,-0.05004333,-4.804332E-06,-0.001056753,0.001200191,0.05217789,0.001599127
0.2239098,-0.08252344,-0.06321485,0.001376137,0.01359062,-0.05016557,0.0003651981,-0.001275308,0.0001069519,0.05199214,0.001330872
0.223901,-0.08226962,-0.06422284,-0.0002356869,0.01271501,-0.05028643,0.0007316085,-0.001491603,-0.0009752826,0.05186956,0.001926475
0.2238564,-0.082036,-0.06523539,-0.001842774,0.01173659,-0.05040472,0.001463033,-0.001104055,-0.002291646,0.0517859,0.002934458
0.2237761,-0.08182247,-0.06625239,-0.003440903,0.01075822,-0.05051733,0.002187067,-0.0007204954,-0.003594716,0.05176466,0.004269
0.2236605,-0.08162903,-0.06727365,-0.005024969,0.00977996,-0.05062141,0.002903984,-0.000340696,-0.004884738,0.05180178,0.005692966
0.22351,-0.08145571,-0.06829892,-0.006589921,0.008801863,-0.05071412,0.003613973,3.530538E-05,-0.00616167,0.05189241,0.007143404
0.2233251,-0.08130242,-0.06932791,-0.008130757,0.007823929,-0.0507927,0.004316583,0.0004076601,-0.007425955,0.05203097,0.008599063
0.2231088,-0.08116563,-0.07035936,-0.00964397,0.007014662,-0.0508539,0.004730755,0.00167681,-0.008090936,0.05223343,0.009521291
0.2228619,-0.0810453,-0.0713929,-0.01112547,0.006205603,-0.05089652,0.005140964,0.00293323,-0.008749269,0.05246657,0.01056329
0.2225851,-0.08094145,-0.07242811,-0.01257267,0.005396783,-0.0509189,0.005547091,0.00417701,-0.009400844,0.05272505,0.01168732
0.2222789,-0.08085407,-0.07346453,-0.01398299,0.004588187,-0.05091942,0.005949427,0.005408429,-0.01004571,0.05300342,0.01286713
0.2219443,-0.08078315,-0.07450169,-0.01535389,0.003779843,-0.05089646,0.006347804,0.006627495,-0.01068408,0.05329615,0.01408432
0.2215851,-0.08072332,-0.07553778,-0.01668478,0.003223717,-0.05084761,0.006319666,0.00817849,-0.01043097,0.05361206,0.01468438
0.2212019,-0.0806746,-0.07657227,-0.01797465,0.002667814,-0.05077372,0.006292293,0.009713673,-0.01018065,0.05392751,0.01541409
0.2207957,-0.08063695,-0.07760467,-0.01922446,0.00211212,-0.05067488,0.0062652,0.01123369,-0.00993233,0.05424006,0.01625115
0.2203671,-0.08061041,-0.0786345,-0.02043515,0.001556605,-0.05055115,0.006238721,0.01273832,-0.00968649,0.05454757,0.01717599
0.219917,-0.08059487,-0.07966127,-0.02160765,0.001001269,-0.0504026,0.006212649,0.01422806,-0.009442698,0.05484812,0.01817138
0.219447,-0.08058635,-0.08068341,-0.02274423,0.0006448478,-0.05022853,0.005855096,0.01542192,-0.008758475,0.05514183,0.01867696
0.218958,-0.08058453,-0.08170054,-0.02384617,0.000288561,-0.05003107,0.005501101,0.01660381,-0.008080746,0.05542411,0.01926777
0.2184505,-0.08058966,-0.08271219,-0.02491612,-6.759167E-05,-0.0498116,0.005151229,0.01777384,-0.007409693,0.05569572,0.01993359
0.2179251,-0.08060166,-0.08371794,-0.02595668,-0.0004236698,-0.04957147,0.004805274,0.01893228,-0.006745035,0.05595766,0.0206644
0.2173823,-0.08062052,-0.08471747,-0.02697043,-0.0007796735,-0.04931202,0.00446315,0.02007907,-0.006086684,0.0562111,0.02145079
0.2168212,-0.08064497,-0.08571073,-0.02796035,-0.001067013,-0.04903427,0.004240071,0.02060862,-0.00570427,0.05645599,0.02179982
0.2162423,-0.08067499,-0.08669744,-0.02892749,-0.001354292,-0.04873939,0.004019454,0.02113307,-0.005325373,0.05669358,0.02216128
0.2156461,-0.08071056,-0.08767726,-0.02987334,-0.001641512,-0.04842826,0.003801171,0.02165224,-0.004950069,0.05692457,0.02253379
0.2150328,-0.08075175,-0.08864986,-0.03079934,-0.001928702,-0.04810171,0.003585404,0.02216614,-0.004578501,0.05714975,0.02291627
0.2144029,-0.08079856,-0.08961499,-0.03170696,-0.002215847,-0.04776061,0.003372068,0.0226749,-0.00421034,0.05737,0.0233077
0.2137546,-0.08085042,-0.09057314,-0.03259779,-0.002467096,-0.0474056,0.003410756,0.0228899,-0.004448631,0.05758466,0.02356631
0.2130882,-0.08090726,-0.09152403,-0.03347071,-0.002718344,-0.04703671,0.003448954,0.02310278,-0.004684326,0.05779386,0.02382387
0.2124043,-0.08096924,-0.09246738,-0.03432478,-0.002969578,-0.0466538,0.003486451,0.02331342,-0.004917554,0.05799643,0.02408014
0.211703,-0.08103618,-0.0934029,-0.03515907,-0.003220752,-0.04625672,0.003523456,0.02352211,-0.005148577,0.05819121,0.02433541
0.210985,-0.08110823,-0.0943303,-0.03597265,-0.003471926,-0.04584533,0.003560236,0.02372878,-0.005377475,0.05837706,0.02458958
0.2102496,-0.08118366,-0.09525014,-0.0367651,-0.003628686,-0.045419,0.00388837,0.02404781,-0.005964512,0.05854678,0.02507972
0.2094972,-0.08126239,-0.09616216,-0.0375336,-0.003785402,-0.04497694,0.004212559,0.02436385,-0.006545848,0.05870286,0.02557715
0.2087285,-0.08134453,-0.09706595,-0.03827586,-0.003942102,-0.04451787,0.004533429,0.02467657,-0.007121161,0.05884235,0.02608057
0.207944,-0.08142999,-0.09796116,-0.03898961,-0.004098743,-0.04404054,0.004850995,0.02498628,-0.007691194,0.05896235,0.02658949
0.2071444,-0.08151884,-0.09884737,-0.03967259,-0.004255384,-0.04354371,0.005165368,0.02529278,-0.008255343,0.05905995,0.0271027
0.2063313,-0.08160631,-0.09972392,-0.04032354,-0.004174471,-0.04302481,0.005408737,0.02603486,-0.008583095,0.05911471,0.02794169
0.2055054,-0.08169226,-0.1005904,-0.04094014,-0.004093543,-0.04248421,0.005649329,0.02676956,-0.00890763,0.05914187,0.02877273
0.2046674,-0.08177676,-0.1014463,-0.04152106,-0.004012614,-0.04192097,0.005887617,0.02749683,-0.009229359,0.05913939,0.02959596
0.2038181,-0.0818598,-0.1022912,-0.04206503,-0.003931686,-0.04133416,0.006123581,0.02821687,-0.009547961,0.05910531,0.03041141
0.2029583,-0.08194141,-0.1031246,-0.04257074,-0.003850773,-0.04072287,0.006357167,0.0289296,-0.009863188,0.05903769,0.03121887
0.2020908,-0.08201541,-0.1039449,-0.0430379,-0.003470644,-0.04008429,0.006300995,0.02987901,-0.009545926,0.05891568,0.03199348
0.2012163,-0.08208165,-0.1047519,-0.04346669,-0.00309056,-0.03942053,0.006245649,0.03081878,-0.009231852,0.05876124,0.03277243
0.2003357,-0.0821404,-0.1055448,-0.04385831,-0.002710536,-0.03873179,0.00619141,0.03174915,-0.008920675,0.05857516,0.03355474
0.1994495,-0.08219139,-0.1063234,-0.04421395,-0.002330571,-0.0380183,0.006137934,0.03267021,-0.008612441,0.05835835,0.03433935
0.1985585,-0.08223481,-0.107087,-0.04453478,-0.001950681,-0.0372803,0.006085641,0.03358196,-0.008307499,0.05811173,0.03512545
0.1976647,-0.0822655,-0.1078341,-0.04482253,-0.001327634,-0.03651632,0.005689358,0.0342967,-0.007510552,0.0578296,0.03556741
0.1967687,-0.08228342,-0.1085642,-0.04507969,-0.0007046759,-0.03572959,0.0052978,0.03500418,-0.006721367,0.05752633,0.03603521
0.195871,-0.08228862,-0.109277,-0.04530935,-8.182228E-05,-0.03492166,0.00491087,0.03570462,-0.005939607,0.05720548,0.03652692
0.1949721,-0.08228108,-0.1099721,-0.04551457,0.0005409569,-0.03409408,0.004528373,0.03639791,-0.005165324,0.05687069,0.03704045
0.1940723,-0.08226085,-0.1106492,-0.04569836,0.001163617,-0.03324838,0.004150534,0.0370843,-0.004398477,0.05652564,0.03757418
0.1931714,-0.08222612,-0.1113077,-0.04586386,0.001873478,-0.03238539,0.003744001,0.03719433,-0.003689648,0.05617666,0.03756393
0.1922697,-0.08217687,-0.1119475,-0.0460137,0.002583265,-0.03150739,0.003341992,0.03730337,-0.002987425,0.05582696,0.03757173
0.1913676,-0.08211315,-0.1125682,-0.04615064,0.003292933,-0.03061596,0.00294466,0.03741105,-0.002292119,0.05548029,0.0375967
0.190465,-0.08203498,-0.1131697,-0.04627742,0.004002571,-0.02971268,0.002551972,0.0375177,-0.001603439,0.05514039,0.03763856
0.1895622,-0.0819424,-0.1137518,-0.04639672,0.004712135,-0.02879911,0.002163325,0.03762331,-0.0009212972,0.05481103,0.03769672
0.1886574,-0.08183579,-0.1143148,-0.04651123,0.005398408,-0.02787697,0.001957133,0.03727015,-0.0007317563,0.05449369,0.03732868
0.1877507,-0.08171547,-0.1148586,-0.0466217,0.006084621,-0.02694689,0.00175333,0.03692072,-0.0005442124,0.0541917,0.03696634
0.1868422,-0.08158121,-0.1153831,-0.04672889,0.00677079,-0.0260097,0.001551551,0.03657459,-0.0003583857,0.05390674,0.03660924
0.1859319,-0.08143307,-0.1158881,-0.04683354,0.007456914,-0.02506617,0.001351834,0.03623188,-0.0001740726,0.05364046,0.0362575
0.1850198,-0.08127099,-0.1163736,-0.04693639,0.008143008,-0.02411712,0.001154496,0.03589278,8.281603E-06,0.05339446,0.03591135
0.1841045,-0.08109629,-0.1168402,-0.04703809,0.008783609,-0.02316367,0.001225763,0.03546527,-0.0002749811,0.05316285,0.03548751
0.1831861,-0.0809087,-0.1172879,-0.0471376,0.009424165,-0.0222052,0.001295912,0.03504204,-0.0005555528,0.05295129,0.03507039
0.1822646,-0.08070842,-0.1177166,-0.04723382,0.01006469,-0.02124143,0.001365328,0.03462312,-0.0008330474,0.05275917,0.03466004
0.1813401,-0.08049543,-0.1181261,-0.04732568,0.01070519,-0.02027209,0.001433901,0.03420842,-0.001108253,0.05258591,0.03425639
0.1804127,-0.08026955,-0.1185163,-0.04741208,0.01134564,-0.01929692,0.001501308,0.03379783,-0.001380363,0.05243091,0.0338593
0.1794827,-0.08003058,-0.1188873,-0.047492,0.01200889,-0.01831547,0.00161947,0.03366749,-0.001686823,0.05229876,0.0337486
0.1785502,-0.0797784,-0.1192389,-0.0475642,0.0126721,-0.01732746,0.001736049,0.03353852,-0.001990204,0.05218406,0.03364234
0.1776154,-0.07951307,-0.1195709,-0.04762747,0.01333527,-0.01633245,0.001851577,0.03341085,-0.002290552,0.05208603,0.03354042
0.1766786,-0.07923453,-0.1198833,-0.04768064,0.01399837,-0.01532998,0.001965676,0.03328438,-0.002588037,0.0520039,0.03344266
0.17574,-0.07894284,-0.1201758,-0.04772251,0.01466143,-0.0143196,0.002078205,0.03315928,-0.002882588,0.05193695,0.03334916
0.1748011,-0.07863644,-0.1204478,-0.04775202,0.01539497,-0.01330032,0.002045766,0.03330395,-0.002798446,0.05190529,0.03348387
0.1738622,-0.07831533,-0.1206992,-0.04776939,0.01612847,-0.01227283,0.002013518,0.03344721,-0.002715128,0.05189089,0.03361759
0.1729236,-0.07797955,-0.1209298,-0.04777496,0.01686189,-0.01123727,0.001981715,0.03358896,-0.002632838,0.05189456,0.03375022
0.1719854,-0.07762907,-0.1211394,-0.04776902,0.01759525,-0.01019377,0.001949902,0.03372937,-0.002551289,0.0519171,0.03388188
0.1710479,-0.07726392,-0.1213279,-0.0477519,0.01832855,-0.009142475,0.00191877,0.03386838,-0.002470503,0.05195926,0.03401253
0.1701126,-0.076883,-0.1214944,-0.04772394,0.01910596,-0.008083134,0.001632006,0.03400542,-0.001967297,0.05203796,0.03410136
0.1691797,-0.07648634,-0.1216387,-0.04768708,0.0198833,-0.007017256,0.001348376,0.03414118,-0.00146885,0.05214063,0.03419935
0.1682492,-0.07607389,-0.1217607,-0.04764328,0.02066064,-0.005945967,0.001067863,0.03427542,-0.0009754079,0.05226948,0.03430592
0.1673213,-0.07564571,-0.1218605,-0.04759448,0.02143794,-0.004870378,0.0007903183,0.0344084,-0.0004865441,0.05242652,0.03442091
0.166396,-0.07520178,-0.1219378,-0.0475426,0.02221522,-0.00379159,0.0005158713,0.03454012,-2.355359E-06,0.0526136,0.03454398
0.1654733,-0.07474343,-0.1219924,-0.04748952,0.02292304,-0.002711277,0.0001560357,0.03433676,0.0005460115,0.05280219,0.03434145
0.1645532,-0.07427073,-0.1220243,-0.04743743,0.02363086,-0.00163027,-0.000199877,0.03413539,0.001089114,0.0530225,0.03415335
0.1636355,-0.07378347,-0.1220336,-0.0473885,0.02433868,-0.000549974,-0.0005520121,0.03393615,0.00162684,0.05327611,0.0339796
0.1627201,-0.07328194,-0.1220202,-0.04734485,0.02504651,0.0005282254,-0.0008999225,0.03373893,0.002159422,0.05356437,0.03381994
0.161807,-0.07276592,-0.1219844,-0.0473086,0.02575438,0.001602958,-0.001244431,0.03354369,0.002686983,0.05388841,0.03367414
0.1608945,-0.07223904,-0.1219265,-0.0472817,0.02628864,0.002671399,-0.001480804,0.03299193,0.002866962,0.05416446,0.03314935
0.1599825,-0.07170129,-0.1218466,-0.04726502,0.02682297,0.003734094,-0.001714546,0.03244573,0.003045198,0.05447382,0.03263339
0.1590708,-0.07115266,-0.121745,-0.04725927,0.02735735,0.004790128,-0.001946122,0.03190491,0.003221963,0.05481613,0.03212619
0.158159,-0.07059322,-0.1216217,-0.04726517,0.02789178,0.005838592,-0.00217507,0.03136951,0.003396859,0.05519091,0.03162777
0.1572471,-0.07002291,-0.1214769,-0.04728343,0.02842627,0.00687859,-0.00240178,0.03083934,0.003570306,0.05559758,0.03113809
0.1563332,-0.06944605,-0.1213116,-0.04731457,0.028753,0.007907514,-0.002395316,0.03020409,0.003286955,0.05592792,0.03047669
0.1554171,-0.06886274,-0.1211259,-0.04735767,0.02907977,0.008927126,-0.002389063,0.02957496,0.003006757,0.05628565,0.02982325
0.1544987,-0.06827279,-0.12092,-0.04741166,0.02940661,0.00993745,-0.002382949,0.02895213,0.002729329,0.05666892,0.02917796
0.1535777,-0.06767634,-0.1206942,-0.04747547,0.02973351,0.01093852,-0.002377039,0.02833563,0.002454693,0.05707585,0.02854091
0.1526539,-0.06707334,-0.1204486,-0.04754805,0.03006047,0.01193035,-0.002371319,0.02772515,0.002182779,0.05750463,0.02791185
0.1517269,-0.06646694,-0.1201837,-0.04762816,0.03023635,0.01291176,-0.002249564,0.02735107,0.001730851,0.05787393,0.02749795
0.1507965,-0.06585715,-0.1198997,-0.04771423,0.03041229,0.01388446,-0.002129254,0.02698072,0.001283474,0.0582609,0.02709503
0.1498628,-0.06524382,-0.1195968,-0.0478045,0.0305883,0.0148489,-0.002010783,0.02661409,0.0008405417,0.05866348,0.02670317
0.1489255,-0.06462718,-0.1192751,-0.04789725,0.03076436,0.01580557,-0.001893417,0.02625115,0.0004020226,0.05907967,0.02632242
0.1479848,-0.06400706,-0.1189348,-0.04799076,0.03094047,0.01675493,-0.001777577,0.02589178,-3.225759E-05,0.05950759,0.02595274
0.1470415,-0.06338502,-0.1185759,-0.04808325,0.03103739,0.01769679,-0.001708161,0.02585975,-0.0002659064,0.05990405,0.02591747
0.1460957,-0.06276117,-0.1181985,-0.04817389,0.03113438,0.01863207,-0.001639404,0.02582798,-0.0004973651,0.06030943,0.02588473
0.1451474,-0.0621353,-0.1178028,-0.04826178,0.03123139,0.01956103,-0.001571744,0.02579648,-0.0007264385,0.06072259,0.02585452
0.1441967,-0.06150769,-0.1173888,-0.04834603,0.03132845,0.02048393,-0.001504354,0.02576529,-0.000953273,0.06114247,0.02582677
0.1432438,-0.06087811,-0.1169567,-0.04842574,0.03142558,0.02140104,-0.001438069,0.0257345,-0.001177865,0.06156804,0.02580155
0.1422898,-0.06024748,-0.116506,-0.04849998,0.03147316,0.02231224,-0.001546581,0.02586705,-0.001046821,0.06197292,0.02593438
0.1413349,-0.05961586,-0.1160369,-0.04856931,0.0315208,0.02321748,-0.00165371,0.02599831,-0.0009171552,0.06238261,0.02606699
0.1403792,-0.05898318,-0.1155495,-0.04863426,0.03156847,0.02411632,-0.001760012,0.02612821,-0.0007885998,0.06279695,0.0261993
0.1394228,-0.05834953,-0.115044,-0.04869533,0.0316162,0.02500837,-0.001865194,0.02625682,-0.0006614905,0.0632158,0.0263313
0.1384657,-0.05771478,-0.1145204,-0.048753,0.03166398,0.02589319,-0.001969175,0.02638407,-0.0005354493,0.06363899,0.02646287
0.1375084,-0.05708075,-0.1139787,-0.04880769,0.03162012,0.0267697,-0.002176073,0.02638863,-0.0002446773,0.06402062,0.02647933
0.136551,-0.05644745,-0.1134191,-0.04886064,0.03157634,0.02763777,-0.002380602,0.02639314,4.305363E-05,0.06440709,0.02650032
0.1355933,-0.05581485,-0.1128416,-0.04891299,0.03153263,0.02849659,-0.002583297,0.02639776,0.0003284336,0.06479847,0.0265259
0.1346355,-0.05518297,-0.1122466,-0.04896586,0.031489,0.02934537,-0.002783337,0.02640234,0.0006106211,0.06519481,0.02655566
0.1336775,-0.05455187,-0.1116342,-0.04902036,0.03144544,0.03018332,-0.002981313,0.02640675,0.000890244,0.06559607,0.02658942
0.1327184,-0.05392443,-0.1110049,-0.04907745,0.03125265,0.03100857,-0.003145061,0.02617837,0.001002316,0.06593069,0.02638566
0.1317584,-0.05330075,-0.1103588,-0.04913773,0.03105994,0.03182159,-0.003306965,0.02595224,0.001113472,0.06627103,0.02618577
0.1307972,-0.05268085,-0.1096962,-0.04920165,0.03086729,0.03262173,-0.00346723,0.02572844,0.001223874,0.06661659,0.02598985
0.1298349,-0.05206464,-0.1090174,-0.04926967,0.03067474,0.03340837,-0.003626237,0.02550696,0.001333214,0.06696685,0.02579791
0.1288713,-0.05145214,-0.1083227,-0.04934222,0.03048228,0.03418088,-0.003783746,0.02528758,0.001441635,0.06732129,0.0256097
0.1279051,-0.05084684,-0.1076128,-0.04941954,0.03012131,0.03493747,-0.003775615,0.02495203,0.001204772,0.06760334,0.02526481
0.1269364,-0.05024882,-0.1068882,-0.04950092,0.02976047,0.03567937,-0.003767507,0.02461988,0.0009703139,0.06788994,0.02492537
0.1259651,-0.04965806,-0.106149,-0.04958544,0.02939969,0.0364066,-0.003759452,0.02429101,0.0007381908,0.0681799,0.0245913
0.1249911,-0.04907442,-0.1053957,-0.04967223,0.02903904,0.03711919,-0.003751962,0.02396536,0.0005087761,0.06847211,0.02426261
0.1240144,-0.04849806,-0.1046284,-0.04976038,0.02867848,0.03781717,-0.003744133,0.02364304,0.0002814585,0.06876546,0.02393932
0.1230344,-0.04793129,-0.1038478,-0.04984888,0.0282031,0.03849982,-0.003610346,0.02346137,-0.0001567322,0.06901132,0.02373805
0.1220513,-0.04737417,-0.1030543,-0.04993617,0.0277278,0.03916842,-0.003477876,0.0232814,-0.0005903143,0.06925762,0.02354714
0.121065,-0.04682666,-0.1022481,-0.05002055,0.02725258,0.03982349,-0.003346971,0.02310338,-0.00101966,0.06950302,0.02336682
0.1200757,-0.0462887,-0.1014295,-0.05010036,0.02677748,0.04046555,-0.003217959,0.02292703,-0.001444878,0.06974626,0.02319681
0.1190836,-0.04576039,-0.1005986,-0.05017392,0.02630244,0.04109509,-0.003090154,0.02275237,-0.00186605,0.06998605,0.02303696
0.1180892,-0.04524235,-0.09975582,-0.05023957,0.02579583,0.04171242,-0.002954815,0.02285076,-0.002194848,0.07020944,0.02314532
0.1170927,-0.04473452,-0.09890133,-0.05029606,0.0252893,0.04231826,-0.002820804,0.02294814,-0.002520182,0.07042782,0.0232578
0.1160944,-0.04423685,-0.09803538,-0.05034211,0.02478287,0.04291314,-0.002688104,0.02304461,-0.002842565,0.07064033,0.02337435
0.1150946,-0.04374948,-0.09715813,-0.05037646,0.02427649,0.04349755,-0.002556809,0.02314012,-0.003161684,0.07084612,0.02349465
0.1140934,-0.04327233,-0.09626979,-0.05039785,0.02377021,0.04407204,-0.002427089,0.02323475,-0.003477708,0.07104443,0.02361861
0.1130923,-0.04280477,-0.09537018,-0.05040509,0.02329299,0.04463725,-0.002416047,0.02352323,-0.003496985,0.07124409,0.02390415
0.1120914,-0.04234668,-0.09445952,-0.05039806,0.02281584,0.04519306,-0.002405102,0.02380867,-0.003515878,0.07143486,0.02418674
0.1110912,-0.04189827,-0.09353793,-0.05037669,0.02233876,0.04573951,-0.002393919,0.02409137,-0.003534677,0.07161658,0.02446669
0.1100918,-0.0414593,-0.09260568,-0.05034089,0.02186172,0.04627663,-0.002383453,0.02437109,-0.003553548,0.07178904,0.02474386
0.1090935,-0.04102988,-0.0916629,-0.05029061,0.02138475,0.04680446,-0.002373138,0.02464798,-0.003571997,0.07195213,0.02501827
0.1080974,-0.04060934,-0.09070946,-0.05022576,0.020937,0.04732319,-0.002472018,0.02488833,-0.00335868,0.07211428,0.0252353
0.1071037,-0.04019774,-0.08974555,-0.05014718,0.02048931,0.04783228,-0.002569495,0.02512632,-0.00314733,0.07226671,0.0254527
0.1061126,-0.03979496,-0.08877137,-0.0500557,0.02004169,0.04833132,-0.002666071,0.02536201,-0.002938094,0.07240966,0.02567044
0.1051245,-0.03940105,-0.08778715,-0.04995213,0.01959415,0.04881993,-0.002761384,0.02559515,-0.00273098,0.07254331,0.02588813
0.1041394,-0.03901602,-0.08679309,-0.04983728,0.01914667,0.04929774,-0.002855737,0.02582611,-0.00252578,0.07266785,0.02610599
0.1031574,-0.03863999,-0.08578932,-0.04971197,0.01869558,0.04976434,-0.002974696,0.02586612,-0.002332388,0.07278252,0.02614087
0.1021788,-0.03827281,-0.08477613,-0.04957696,0.01824455,0.05021929,-0.003092427,0.02590569,-0.002140723,0.07288837,0.02617729
0.1012036,-0.03791454,-0.08375373,-0.049433,0.0177936,0.05066211,-0.003208807,0.02594495,-0.001951225,0.0729855,0.02621534
0.1002321,-0.03756528,-0.08272238,-0.04928085,0.01734272,0.05109235,-0.003323543,0.02598373,-0.001763331,0.07307394,0.02625471
0.09926442,-0.0372249,-0.08168234,-0.04912125,0.01689193,0.05150956,-0.003437381,0.02602224,-0.001577193,0.07315373,0.02629563
0.09829985,-0.03689408,-0.08063419,-0.04895493,0.01641339,0.05191313,-0.003459762,0.02588612,-0.001606057,0.07321856,0.02616563
0.09733857,-0.03657283,-0.07957815,-0.04878179,0.01593494,0.05230313,-0.003481965,0.02575143,-0.001634668,0.07327485,0.02603713
0.09638071,-0.03626107,-0.07851455,-0.04860174,0.01545657,0.05267946,-0.003503794,0.02561813,-0.00166295,0.0733223,0.02591004
0.0954264,-0.03595889,-0.07744361,-0.04841466,0.01497826,0.05304204,-0.003525476,0.02548612,-0.001691033,0.07336065,0.02578431
0.09447581,-0.03566631,-0.07636563,-0.04822045,0.01450002,0.05339077,-0.003546781,0.02535543,-0.001718837,0.07338962,0.02565993
0.09352846,-0.03538338,-0.07528123,-0.04801903,0.01401818,0.05372554,-0.00346286,0.0252222,-0.001943689,0.07340825,0.02553289
0.09258454,-0.03511018,-0.07419066,-0.04780951,0.01353641,0.05404672,-0.003379578,0.02509018,-0.002166353,0.07341683,0.02540929
0.09164421,-0.03484664,-0.0730942,-0.04759103,0.0130547,0.0543546,-0.003297257,0.0249596,-0.002386915,0.07341495,0.02528935
0.0907077,-0.03459287,-0.07199207,-0.04736274,0.01257302,0.05464952,-0.003215785,0.02483021,-0.002605238,0.07340218,0.02517276
0.08977522,-0.03434875,-0.07088455,-0.04712379,0.0120914,0.05493179,-0.003135567,0.0247022,-0.002821453,0.07337817,0.02505974
0.08884712,-0.03411331,-0.06977198,-0.0468733,0.0116625,0.05520196,-0.003019854,0.02471534,-0.003030168,0.07335105,0.02508285
0.08792367,-0.03388652,-0.0686546,-0.0466105,0.01123366,0.05546022,-0.002905283,0.0247282,-0.003236761,0.07331146,0.02510779
0.08700512,-0.03366838,-0.06753264,-0.04633458,0.01080483,0.05570703,-0.002792086,0.0247409,-0.003441441,0.0732592,0.02513466
0.08609178,-0.033459,-0.06640629,-0.04604473,0.01037607,0.05594283,-0.002680098,0.02475343,-0.003644077,0.07319412,0.02516336
0.08518392,-0.03325819,-0.0652758,-0.04574016,0.009947315,0.05616804,-0.002569516,0.02476587,-0.003844846,0.07311607,0.02519392
0.08428261,-0.03306398,-0.06414112,-0.04542002,0.009620458,0.05638352,-0.002529615,0.0249157,-0.003835686,0.07303857,0.02533581
0.08338816,-0.03287634,-0.06300247,-0.04508441,0.009293616,0.05658898,-0.00249031,0.02506391,-0.003826388,0.07294716,0.02547631
0.08250087,-0.0326953,-0.06186001,-0.04473338,0.008966804,0.05678458,-0.002451299,0.02521075,-0.003817321,0.07284207,0.02561568
0.08162104,-0.03252071,-0.06071398,-0.04436696,0.008640021,0.05697045,-0.002412618,0.02535609,-0.00380839,0.07272351,0.02575376
0.0807511,-0.03236126,-0.05953701,-0.04387968,0.007891282,0.0585228,-0.002373928,0.02549982,-0.003799674,0.07357049,0.02589042
0.07989205,-0.0322145,-0.05832899,-0.04337696,0.00724867,0.06006613,-0.002440274,0.02562864,-0.003557506,0.0744449,0.02598919
0.07904417,-0.03208059,-0.0570901,-0.04285988,0.006606072,0.06159974,-0.002505518,0.0257562,-0.003317714,0.07533351,0.02608959
0.07820773,-0.03195955,-0.05582054,-0.04232937,0.005963504,0.06312338,-0.002570112,0.0258826,-0.003080524,0.07623582,0.02619168
0.07738296,-0.03185115,-0.05452055,-0.04178638,0.005320936,0.06463679,-0.002634136,0.02600766,-0.002845691,0.07715134,0.02629515
0.07657008,-0.03175569,-0.05319031,-0.04123182,0.004678398,0.06613971,-0.00269704,0.02613151,-0.002613168,0.07807951,0.02639997
0.07576963,-0.03167122,-0.05182958,-0.0406665,0.004115686,0.06763217,-0.002909592,0.02613206,-0.002245661,0.07902413,0.02638927
0.07498179,-0.03159785,-0.05043861,-0.04009198,0.003553003,0.06911304,-0.003119675,0.02613245,-0.001882029,0.07997876,0.02638521
0.07420669,-0.03153563,-0.04901762,-0.0395097,0.002990335,0.07058148,-0.003327813,0.02613296,-0.001521612,0.08094259,0.0263879
0.07344445,-0.0314844,-0.04756693,-0.03892108,0.002427727,0.07203668,-0.003533463,0.02613346,-0.00116467,0.08191476,0.02639696
0.07269517,-0.03144433,-0.0460868,-0.03832753,0.001865149,0.07347783,-0.00373681,0.02613395,-0.0008112528,0.08289433,0.02641222
0.0719583,-0.03141502,-0.04457751,-0.03773043,0.001315787,0.07490416,-0.003949835,0.02586105,-0.0005883324,0.08388057,0.02616757
0.07123391,-0.03139653,-0.04303936,-0.03713068,0.0007664561,0.0763148,-0.004160288,0.02559104,-0.0003675316,0.08487181,0.02592961
0.07052201,-0.03138895,-0.04147268,-0.03652917,0.0002171844,0.07770891,-0.004368311,0.02532376,-0.000148797,0.08586677,0.0256982
0.06982263,-0.0313921,-0.03987786,-0.03592676,-0.0003320277,0.07908569,-0.004574397,0.02505912,6.788583E-05,0.0868642,0.0254733
0.06913576,-0.03140609,-0.03825524,-0.03532433,-0.0008811802,0.08044432,-0.004778294,0.0247972,0.000282619,0.08786281,0.02525496
0.06846018,-0.03143134,-0.03660578,-0.03472274,-0.001445159,0.08178397,-0.00479677,0.02431837,0.0001565357,0.08886155,0.02478743
0.0677959,-0.03146791,-0.03492982,-0.0341215,-0.002009079,0.0831046,-0.004815135,0.02384436,3.176273E-05,0.08985926,0.02432571
0.06714291,-0.03151572,-0.03322778,-0.03352013,-0.002572939,0.08440614,-0.004833332,0.02337494,-9.176131E-05,0.09085492,0.02386959
0.06650125,-0.03157479,-0.03150003,-0.03291816,-0.003136739,0.08568854,-0.00485128,0.02291026,-0.0002139545,0.09184754,0.02341924
0.06587095,-0.03164512,-0.02974696,-0.03231512,-0.00370051,0.08695171,-0.004869292,0.02245037,-0.0003350296,0.0928362,0.0229748
0.06525155,-0.03172587,-0.02796927,-0.03171048,-0.004218444,0.0881957,-0.004779416,0.02209097,-0.0006350697,0.09381808,0.02261099
0.06464314,-0.03181706,-0.02616735,-0.03110313,-0.004736334,0.08942076,-0.004690476,0.02173512,-0.0009320574,0.09479403,0.022255
0.06404579,-0.0319187,-0.02434155,-0.03049193,-0.005254194,0.09062723,-0.004602205,0.02138283,-0.001225885,0.09576356,0.02190682
0.06345962,-0.03203078,-0.02249225,-0.02987572,-0.005772039,0.09181546,-0.004515047,0.02103403,-0.001516911,0.09672619,0.02156658
0.06288477,-0.03215328,-0.02061979,-0.02925339,-0.00628984,0.09298579,-0.004428987,0.0206886,-0.001804808,0.09768153,0.02123421
0.06232203,-0.03228384,-0.01872435,-0.02862358,-0.006691694,0.09413879,-0.004407267,0.02058924,-0.001940098,0.0986215,0.02114485
0.06177157,-0.03242242,-0.01680627,-0.027986,-0.007093549,0.0952743,-0.004385597,0.02049083,-0.002073877,0.09955263,0.02105726
0.06123355,-0.0325691,-0.01486588,-0.02734011,-0.007495359,0.09639241,-0.004364045,0.02039332,-0.002206537,0.1004747,0.02097144
0.06070817,-0.03272378,-0.01290355,-0.02668541,-0.007897168,0.09749319,-0.004343065,0.02029683,-0.002337913,0.1013874,0.02088754
0.06019559,-0.03288665,-0.01091959,-0.02602138,-0.008298963,0.09857674,-0.004322029,0.02020135,-0.00246793,0.1022906,0.02080541
0.05969698,-0.03305469,-0.008914098,-0.02534725,-0.008565664,0.09964332,-0.004396401,0.020182,-0.002309286,0.1031729,0.02078399
0.05921249,-0.03322796,-0.00688741,-0.02466391,-0.008832365,0.1006924,-0.004470038,0.02016282,-0.002152262,0.1040446,0.02076422
0.05874231,-0.03340656,-0.004839864,-0.02397199,-0.009099066,0.1017238,-0.004542359,0.0201439,-0.001996814,0.1049056,0.02074601
0.05828659,-0.03359043,-0.002771847,-0.02327212,-0.009365767,0.1027371,-0.004613753,0.02012509,-0.001842792,0.1057554,0.02072925
0.05784547,-0.03377958,-0.00068371,-0.02256489,-0.009632424,0.103732,-0.004684473,0.02010644,-0.001690357,0.106594,0.02071402
0.05741954,-0.03397164,0.001424406,-0.02185067,-0.009783924,0.1047085,-0.004831995,0.01997486,-0.001360747,0.1074106,0.02059599
0.0570089,-0.03416662,0.003552109,-0.02113102,-0.009935394,0.1056657,-0.004977688,0.01984457,-0.001034271,0.108215,0.02048546
0.05661363,-0.0343645,0.005699001,-0.02040722,-0.01008686,0.1066032,-0.005122208,0.01971557,-0.0007108689,0.1090066,0.0203825
0.05623377,-0.0345652,0.007864654,-0.01968056,-0.01023832,0.1075203,-0.005265148,0.01958794,-0.0003908506,0.1097851,0.02028699
0.05586935,-0.03476888,0.01004867,-0.01895232,-0.01038978,0.1084165,-0.005406257,0.01946167,-7.375392E-05,0.1105499,0.02019875
0.05552012,-0.03497409,0.01225069,-0.01822358,-0.01047277,0.1092912,-0.005572656,0.01913661,0.0002063386,0.111294,0.01993256
0.05518604,-0.03518081,0.01447028,-0.01749562,-0.01055576,0.1101439,-0.005737316,0.01881476,0.0004836431,0.1120232,0.01967603
0.05486709,-0.03538904,0.01670696,-0.01676954,-0.01063873,0.1109737,-0.005900778,0.01849621,0.0007582974,0.1127367,0.01942946
0.05456319,-0.03559878,0.01896027,-0.01604643,-0.01072167,0.1117801,-0.00606234,0.01818085,0.001030303,0.1134339,0.01919262
0.05427426,-0.0358101,0.02122972,-0.01532738,-0.01080461,0.1125625,-0.006222104,0.01786882,0.001299632,0.1141139,0.01896572
0.05399944,-0.03602246,0.02351461,-0.01461339,-0.01086172,0.1133202,-0.006311903,0.01738265,0.001362413,0.1147737,0.01854327
0.05373861,-0.03623588,0.02581443,-0.01390478,-0.01091884,0.1140529,-0.006400685,0.01690149,0.00142464,0.115415,0.01812894
0.05349167,-0.03645037,0.02812868,-0.0132018,-0.01097594,0.1147602,-0.00648869,0.01642502,0.001486522,0.1160373,0.0177227
0.0532585,-0.03666586,0.03045682,-0.01250471,-0.01103304,0.1154418,-0.006575997,0.01595347,0.001547802,0.1166401,0.01732492
0.05303899,-0.0368825,0.03279837,-0.01181375,-0.01109014,0.1160973,-0.006661808,0.0154866,0.001608529,0.1172227,0.01693523
0.0528324,-0.03709976,0.03515244,-0.01112912,-0.01112032,0.1167265,-0.006638519,0.01499332,0.001477417,0.117782,0.01646367
0.05263862,-0.03731769,0.03751853,-0.01045035,-0.01115051,0.1173294,-0.006615538,0.01450478,0.001347504,0.1183204,0.01599905
0.05245755,-0.03753615,0.03989608,-0.009776955,-0.01118071,0.117906,-0.006593169,0.01402113,0.001219026,0.1188378,0.01554181
0.0522891,-0.03775527,0.0422846,-0.00910842,-0.01121092,0.1184566,-0.006570713,0.01354235,0.001091934,0.119334,0.01509178
0.0521332,-0.03797501,0.04468355,-0.008444253,-0.01124117,0.1189812,-0.006548697,0.01306843,0.00096612,0.1198089,0.01464933
0.0519899,-0.03819411,0.04709236,-0.007783835,-0.01120631,0.1194797,-0.006506046,0.01272959,0.0008510565,0.1202563,0.01432115
0.05185914,-0.03841257,0.04951051,-0.007126846,-0.01117152,0.1199525,-0.006463893,0.0123942,0.0007370964,0.1206822,0.01399791
0.05174086,-0.03863031,0.05193749,-0.006472842,-0.01113674,0.1203998,-0.006421972,0.01206195,0.0006241095,0.1210869,0.01367925
0.05163503,-0.03884742,0.05437279,-0.00582138,-0.01110198,0.1208216,-0.006380783,0.01173301,0.0005123965,0.1214702,0.01336565
0.0515416,-0.03906386,0.05681591,-0.005172025,-0.01106727,0.1212182,-0.006340005,0.01140748,0.000401817,0.1218322,0.0130571
0.05146121,-0.03927778,0.05926653,-0.004524177,-0.01094575,0.1215895,-0.006367091,0.01120379,0.0004805608,0.122165,0.01289557
0.05139383,-0.03948934,0.06172417,-0.003878319,-0.01082426,0.1219356,-0.00639357,0.01100217,0.0005583708,0.1224765,0.01273724
0.0513394,-0.0396984,0.06418832,-0.00323476,-0.01070282,0.1222564,-0.006419969,0.0108025,0.0006355738,0.1227667,0.01258228
0.05129787,-0.03990505,0.06665846,-0.002593809,-0.01058145,0.1225519,-0.006446008,0.01060482,0.0007120956,0.1230352,0.01243062
0.05126919,-0.04010919,0.06913408,-0.001955772,-0.01046014,0.1228218,-0.006471854,0.01040911,0.0007877424,0.1232819,0.01228231
0.0512538,-0.04030952,0.07161488,-0.001320825,-0.01027139,0.1230659,-0.006568692,0.01018225,0.001039334,0.1235009,0.01216166
0.05125161,-0.04050598,0.07410035,-0.0006900901,-0.01008271,0.1232841,-0.006664705,0.009957685,0.0012886,0.1236976,0.01205132
0.05126252,-0.04069857,0.07658996,-6.455317E-05,-0.009894088,0.1234758,-0.006759684,0.009735408,0.001535635,0.1238716,0.01195114
0.05128638,-0.04088727,0.07908314,0.0005548084,-0.009705499,0.1236409,-0.006853619,0.009515505,0.001780108,0.1240225,0.0118611
0.05132307,-0.04107215,0.08157939,0.001167028,-0.009517029,0.1237788,-0.006946318,0.009297726,0.002022236,0.1241496,0.01178085
0.05137232,-0.04125264,0.08407819,0.001771184,-0.009306297,0.1238892,-0.007059753,0.008932875,0.002275785,0.1242509,0.01161101
0.05143397,-0.04142888,0.08657899,0.002366239,-0.009095639,0.1239717,-0.007171765,0.008571634,0.002526914,0.1243274,0.01145829
0.05150779,-0.04160088,0.08908124,0.002951201,-0.008885056,0.1240258,-0.007282533,0.008214044,0.002775569,0.1243786,0.01132297
0.05159357,-0.04176848,0.09158434,0.00352509,-0.008674592,0.1240511,-0.007392243,0.007860182,0.003021721,0.124404,0.01120529
0.05169106,-0.04193172,0.09408768,0.004086934,-0.008464217,0.1240472,-0.007501201,0.00750982,0.003265746,0.1244028,0.01110543
0.05179944,-0.04209121,0.09659059,0.004635744,-0.008274451,0.1240138,-0.007566256,0.007016733,0.00336185,0.1243759,0.01085287
0.05191843,-0.04224677,0.09909245,0.005171174,-0.008084774,0.1239504,-0.007630694,0.006528501,0.003457094,0.1243214,0.01062075
0.05204777,-0.04239851,0.1015927,0.005692852,-0.007895216,0.1238569,-0.007694273,0.00604519,0.003551643,0.1242388,0.01040963
0.05218718,-0.0425464,0.1040906,0.006200409,-0.007705778,0.1237331,-0.007757158,0.005566712,0.003645318,0.1241277,0.01022008
0.05233636,-0.04269047,0.1065857,0.006693481,-0.007516474,0.1235786,-0.007819425,0.005093169,0.003738155,0.1239878,0.01005274
0.05249445,-0.04283147,0.109077,0.007171671,-0.007362798,0.1233934,-0.007802074,0.004580819,0.003649594,0.1238207,0.009755808
0.05266115,-0.04296942,0.111564,0.007635375,-0.007209271,0.1231774,-0.007785155,0.004073516,0.003562068,0.1236242,0.00948106
0.05283618,-0.04310428,0.114046,0.008084944,-0.007055879,0.1229306,-0.007768341,0.003571249,0.003475399,0.1233981,0.009229265
0.05301929,-0.0432361,0.1165224,0.008520728,-0.006902635,0.1226533,-0.007751692,0.003074042,0.003389794,0.1231425,0.00900162
0.0532102,-0.04336493,0.1189927,0.008943074,-0.006749541,0.1223453,-0.007734901,0.002581618,0.003304929,0.1228573,0.008798636
0.0534085,-0.04349102,0.121456,0.009352314,-0.006615102,0.1220069,-0.007663177,0.002174483,0.00314893,0.1225435,0.008565537
0.05361396,-0.04361459,0.1239117,0.009749084,-0.006480813,0.1216383,-0.00759173,0.001771345,0.002994678,0.1222003,0.008351055
0.05382634,-0.04373544,0.1263592,0.010134,-0.006346703,0.1212397,-0.007521426,0.001372124,0.002842109,0.1218279,0.008156725
0.05404543,-0.04385374,0.128798,0.01050767,-0.006212786,0.1208115,-0.007451439,0.0009767828,0.002691115,0.1214266,0.007982491
0.05427101,-0.04396939,0.1312274,0.01087071,-0.006079033,0.1203538,-0.007382064,0.0005855833,0.002541409,0.1209966,0.00782921
0.05450325,-0.04408234,0.133647,0.0112237,-0.005938336,0.119867,-0.007327138,0.0003270008,0.0024737,0.1205377,0.007740353
0.05474195,-0.0441924,0.1360561,0.01156694,-0.005797818,0.1193513,-0.007272987,7.096626E-05,0.002406717,0.1200506,0.007661179
0.05498692,-0.04429978,0.1384542,0.01190067,-0.005657509,0.1188069,-0.007219351,-0.0001824324,0.002340311,0.1195354,0.007591401
0.05523799,-0.04440438,0.1408406,0.01222518,-0.005517364,0.1182341,-0.007166242,-0.000433297,0.00227497,0.1189924,0.007531153
0.05549497,-0.04450621,0.1432149,0.01254073,-0.005377412,0.1176329,-0.007113758,-0.000681653,0.002210019,0.1184217,0.007480266
0.05575816,-0.04460505,0.1455766,0.01284758,-0.005227372,0.1170037,-0.007109164,-0.0008694044,0.002281916,0.1178229,0.007516862
0.05602738,-0.04470091,0.1479251,0.01314545,-0.005077541,0.1163464,-0.007104482,-0.001055392,0.002352974,0.1171967,0.007558042
0.05630244,-0.04479375,0.1502599,0.01343407,-0.004927918,0.115661,-0.007100007,-0.001239443,0.002423432,0.1165428,0.007603903
0.05658315,-0.04488362,0.1525805,0.01371317,-0.004778489,0.1149477,-0.007095421,-0.001421692,0.002493335,0.1158613,0.007653949
0.05686931,-0.0449705,0.1548862,0.01398248,-0.004629269,0.1142063,-0.007090854,-0.001602194,0.002562445,0.1151522,0.007708007
0.05716085,-0.04505456,0.1571766,0.01424172,-0.004491642,0.1134371,-0.007113255,-0.001829193,0.002686248,0.1144158,0.007820504
0.05745756,-0.04513586,0.1594512,0.01449043,-0.004354253,0.1126398,-0.007135231,-0.002054036,0.002808607,0.1136515,0.007938442
0.05775921,-0.04521441,0.1617093,0.01472813,-0.004217088,0.1118144,-0.007157122,-0.002276517,0.002929796,0.112859,0.008061676
0.05806558,-0.04529017,0.1639504,0.01495434,-0.004080147,0.1109607,-0.007178717,-0.002496734,0.003049733,0.1120382,0.008189538
0.05837642,-0.04536319,0.166174,0.0151686,-0.003943443,0.1100788,-0.007200363,-0.002714788,0.003168633,0.1111889,0.008321991
0.05869118,-0.04543425,0.1683793,0.01537047,-0.003845915,0.1091687,-0.007192939,-0.00301941,0.003210101,0.1103125,0.008435636
0.0590096,-0.04550336,0.1705659,0.01555978,-0.003748655,0.1082303,-0.007185644,-0.003321024,0.003250933,0.1094073,0.008557525
0.05933145,-0.0455705,0.1727331,0.01573639,-0.003651619,0.1072635,-0.007178691,-0.00361947,0.003291444,0.1084732,0.00868722
0.05965646,-0.04563576,0.1748805,0.01590014,-0.003554866,0.1062684,-0.007171607,-0.003915008,0.003331735,0.1075102,0.008823814
0.05998437,-0.04569905,0.1770073,0.01605089,-0.003458366,0.1052451,-0.007164747,-0.004207552,0.003371735,0.1065181,0.008966922
0.06031448,-0.04576146,0.179113,0.01618853,-0.003410086,0.1041939,-0.007100153,-0.00452795,0.003275443,0.1054991,0.009035653
0.06064655,-0.04582296,0.1811969,0.01631343,-0.003362074,0.1031147,-0.007035987,-0.004845143,0.003180242,0.1044513,0.009115617
0.06098033,-0.0458835,0.1832585,0.01642596,-0.003314346,0.1020077,-0.006972934,-0.005159278,0.003085902,0.1033749,0.009206668
0.06131559,-0.04594319,0.1852972,0.01652653,-0.003266886,0.1008732,-0.006910135,-0.005470197,0.002992768,0.1022703,0.009307506
0.06165211,-0.04600198,0.1873125,0.0166155,-0.003219709,0.09971149,-0.006847921,-0.005778006,0.00290066,0.1011376,0.009417706
0.06198943,-0.04606063,0.1893037,0.0166933,-0.003206715,0.09852307,-0.006730461,-0.006024843,0.002721626,0.09997872,0.00943425
0.06232737,-0.04611912,0.1912702,0.0167606,-0.003194019,0.0973081,-0.006614208,-0.006269249,0.002544534,0.09879264,0.009461812
0.06266574,-0.04617745,0.1932117,0.01681813,-0.003181577,0.09606703,-0.006499283,-0.006511361,0.002369086,0.09757994,0.009500057
0.06300435,-0.04623564,0.1951274,0.01686659,-0.003169417,0.0948003,-0.006385143,-0.006751053,0.002195457,0.09634119,0.00954813
0.06334306,-0.0462937,0.197017,0.01690666,-0.003157526,0.09350838,-0.00627229,-0.006988159,0.002023551,0.09507693,0.009605767
0.06368186,-0.04635175,0.1988798,0.01693906,-0.003151953,0.09219176,-0.006143904,-0.007110315,0.001874947,0.09378798,0.009582253
0.06402062,-0.04640973,0.2007155,0.01696436,-0.003146648,0.09085088,-0.006016644,-0.007231288,0.001727693,0.09247472,0.009564333
0.06435921,-0.04646777,0.2025235,0.01698316,-0.003141582,0.08948626,-0.00589066,-0.007351012,0.001581816,0.09113774,0.009551932
0.06469753,-0.04652582,0.2043033,0.01699605,-0.003136784,0.08809837,-0.00576578,-0.007469729,0.001437513,0.08977766,0.009545025
0.06503547,-0.04658392,0.2060546,0.01700359,-0.003132254,0.08668771,-0.005642228,-0.007587107,0.001294485,0.0883951,0.009543302
0.06537332,-0.04664169,0.2077769,0.01700634,-0.003113925,0.08525462,-0.005542673,-0.007612674,0.001251644,0.08699002,0.009499508
0.06571096,-0.0466992,0.2094698,0.0170045,-0.00309585,0.08379965,-0.005444122,-0.007637986,0.001209331,0.08556353,0.00945726
0.06604834,-0.04675642,0.2111329,0.01699823,-0.003078029,0.08232316,-0.005346438,-0.007663044,0.001167256,0.08411609,0.009416428
0.06638536,-0.04681335,0.2127658,0.01698771,-0.00306046,0.08082555,-0.005249641,-0.007687776,0.001125742,0.08264816,0.009376989
0.06672194,-0.04687005,0.214368,0.0169731,-0.003043115,0.07930721,-0.005153908,-0.007712336,0.001084466,0.08116021,0.009339109
0.06705826,-0.04692616,0.2159392,0.01695455,-0.003012002,0.07776833,-0.005087213,-0.007722413,0.001125931,0.07965201,0.009315746
0.06739424,-0.04698167,0.217479,0.01693192,-0.002981141,0.07620936,-0.005021154,-0.007732541,0.001166754,0.07812454,0.009293304
0.0677298,-0.04703666,0.218987,0.01690505,-0.002950504,0.07463054,-0.004955819,-0.007742454,0.001207416,0.0765781,0.009271655
0.06806485,-0.04709107,0.2204629,0.01687379,-0.002920136,0.07303214,-0.00489133,-0.007752343,0.001247691,0.07501297,0.009250982
0.06839928,-0.04714495,0.2219063,0.01683798,-0.002889976,0.07141441,-0.004827464,-0.007761983,0.001287585,0.07342947,0.009230962
0.06873297,-0.04719824,0.2233167,0.01679747,-0.002859503,0.06977759,-0.004759008,-0.007819903,0.001322877,0.07182788,0.009249273
0.06906581,-0.04725098,0.2246938,0.01675212,-0.002829269,0.06812196,-0.004691483,-0.007877395,0.001357871,0.07020855,0.009268613
0.0693977,-0.04730318,0.2260372,0.0167018,-0.002799258,0.06644779,-0.004624303,-0.0079342,0.001392534,0.06857182,0.009288426
0.06972854,-0.04735484,0.2273465,0.01664638,-0.002769485,0.06475533,-0.004557984,-0.007990549,0.001426533,0.06691805,0.009309087
0.07005822,-0.04740596,0.2286215,0.01658573,-0.002739936,0.06304485,-0.004492383,-0.008046146,0.001460561,0.06524758,0.009330339
0.07038637,-0.0474567,0.2298615,0.01651974,-0.002718315,0.0613167,-0.00439133,-0.008143183,0.001419143,0.06356122,0.009359977
0.0707129,-0.04750711,0.2310664,0.01644857,-0.002696931,0.05957118,-0.004291216,-0.00823906,0.001378046,0.06185915,0.009391254
0.0710377,-0.04755725,0.2322358,0.01637238,-0.002675772,0.05780869,-0.004192078,-0.008334054,0.001337384,0.060142,0.00942436
0.07136068,-0.04760698,0.2333692,0.01629134,-0.002654836,0.05602962,-0.004094374,-0.00842806,0.001297257,0.05841039,0.009459332
0.07168175,-0.04765636,0.2344665,0.01620562,-0.002634138,0.05423434,-0.003997202,-0.008521239,0.001257742,0.05666502,0.009495844
0.07200061,-0.04770543,0.2355271,0.01611538,-0.002614871,0.05242326,-0.003856943,-0.008599098,0.001145414,0.05490666,0.009493812
0.07231718,-0.04775434,0.2365508,0.01602107,-0.002595827,0.05059691,-0.00371782,-0.008676141,0.001034416,0.05313624,0.009495663
0.0726314,-0.04780295,0.2375372,0.01592314,-0.002576977,0.04875584,-0.003580146,-0.00875245,0.0009243935,0.05135483,0.009501439
0.0729432,-0.04785129,0.2384861,0.01582202,-0.002558336,0.04690059,-0.003443592,-0.008827997,0.000815366,0.04956356,0.009510872
0.07325253,-0.04789937,0.2393973,0.01571816,-0.002539888,0.0450317,-0.003308302,-0.008902713,0.00070764,0.04776365,0.00952386
0.0735594,-0.04794688,0.2402703,0.01561194,-0.002504364,0.04314948,-0.003153633,-0.008912141,0.0005955508,0.04595521,0.009472398
0.07386375,-0.04799389,0.241105,0.01550385,-0.002469018,0.04125474,-0.003000881,-0.008921474,0.0004848656,0.04414091,0.009425131
0.07416558,-0.04804018,0.241901,0.01539433,-0.002433836,0.03934811,-0.00284963,-0.00893079,0.0003754738,0.04232237,0.009381918
0.07446486,-0.04808602,0.2426583,0.01528381,-0.002398819,0.03743018,-0.002699666,-0.008939938,0.0002671122,0.04050145,0.009342485
0.07476158,-0.04813118,0.2433765,0.01517271,-0.00236395,0.03550154,-0.002551363,-0.00894888,0.0001600124,0.03868021,0.009306853
0.07505598,-0.0481752,0.2440556,0.01506141,-0.002295792,0.0335623,-0.002410153,-0.008892437,0.0001145051,0.03685844,0.009213977
0.07534806,-0.04821794,0.2446952,0.01495014,-0.002227783,0.0316135,-0.002270447,-0.008836519,6.955326E-05,0.03504116,0.009123806
0.07563783,-0.04825939,0.2452952,0.01483907,-0.002159894,0.02965567,-0.002132222,-0.008781274,2.505918E-05,0.03323134,0.009036468
0.0759253,-0.04829963,0.2458555,0.01472839,-0.002092123,0.02768937,-0.00199542,-0.008726468,-1.903716E-05,0.03143253,0.008951722
0.07621048,-0.04833861,0.2463759,0.01461826,-0.002024457,0.02571514,-0.001859843,-0.00867221,-6.270552E-05,0.02964895,0.008869621
0.07649364,-0.04837559,0.2468563,0.01450879,-0.001919419,0.02373298,-0.001749565,-0.008596252,-2.830549E-05,0.02788267,0.008772532
0.07677477,-0.04841051,0.2472966,0.0143999,-0.001814485,0.02174385,-0.001640609,-0.008521053,6.130565E-06,0.02614277,0.008677556
0.0770539,-0.04844345,0.2476966,0.01429146,-0.001709655,0.01974819,-0.001532112,-0.008446681,4.036623E-05,0.02443685,0.008584604
0.07733102,-0.04847446,0.2480563,0.01418333,-0.001604885,0.01774642,-0.001424914,-0.008373128,7.417104E-05,0.0227745,0.00849383
0.07760615,-0.04850341,0.2483755,0.01407537,-0.001500204,0.01573897,-0.001319167,-0.008300236,0.0001076036,0.02116795,0.0084051
0.07787935,-0.04852971,0.2486542,0.0139674,-0.00136888,0.01372588,-0.001225251,-0.008260098,0.0001715904,0.01963063,0.00835224
0.0781506,-0.0485536,0.2488922,0.01385921,-0.001237631,0.01170789,-0.001131967,-0.00822055,0.0002352926,0.01818472,0.008301455
0.0784199,-0.04857486,0.2490895,0.01375056,-0.001106456,0.009685369,-0.001040056,-0.008181321,0.0002985938,0.01685552,0.008252569
0.07868724,-0.04859355,0.2492459,0.01364118,-0.0009753257,0.007658687,-0.0009491086,-0.008142635,0.0003609741,0.01567446,0.008205706
0.0789526,-0.04860972,0.2493615,0.01353084,-0.0008442402,0.005628199,-0.0008587468,-0.008104186,0.0004230657,0.014679,0.008160531
0.07921579,-0.04862308,0.2494361,0.01341926,-0.0007006675,0.003594082,-0.000754761,-0.008117482,0.0004534578,0.01390988,0.008165097
0.07947682,-0.04863369,0.2494696,0.01330634,-0.0005571395,0.001556925,-0.0006517438,-0.00813057,0.0004839637,0.0134087,0.008170995
0.07973564,-0.04864148,0.2494621,0.01319198,-0.0004136562,-0.0004828651,-0.0005494756,-0.008143451,0.0005137692,0.01320729,0.008178122
0.07999221,-0.04864649,0.2494133,0.01307605,-0.0002702326,-0.002524886,-0.0004481872,-0.008156355,0.0005434726,0.01332033,0.008186718
0.08024651,-0.04864873,0.2493234,0.01295843,-0.0001268089,-0.004568739,-0.0003480287,-0.008169205,0.0005728931,0.01374083,0.00819666
0.08049831,-0.04864807,0.2491923,0.01283901,2.253056E-05,-0.006614113,-0.0002211479,-0.008205719,0.000545954,0.01444254,0.008226834
0.08074757,-0.04864457,0.2490198,0.01271789,0.0001718402,-0.008660424,-9.542095E-05,-0.00824183,0.0005195559,0.01538756,0.008258741
0.08099429,-0.04863814,0.2488059,0.01259519,0.0003211498,-0.01070717,2.875508E-05,-0.008277543,0.0004933615,0.01653437,0.008292283
0.0812384,-0.04862881,0.2485508,0.01247101,0.0004704595,-0.01275388,0.0001517387,-0.008312898,0.0004675282,0.01784401,0.008327417
0.08147991,-0.04861662,0.2482544,0.01234545,0.0006197691,-0.01480005,0.0002736154,-0.008348051,0.0004419922,0.01928304,0.008364219
0.08171869,-0.04860136,0.2479167,0.0122186,0.0007778406,-0.01684533,0.0004181101,-0.00836529,0.0003868155,0.02082461,0.00838466
0.08195474,-0.04858306,0.2475376,0.01209071,0.0009359717,-0.01888903,0.0005612817,-0.008382244,0.0003324159,0.02244676,0.008407589
0.08218803,-0.04856174,0.2471173,0.01196197,0.001094103,-0.02093059,0.0007027612,-0.008398954,0.0002785025,0.02413245,0.008432903
0.08241857,-0.04853738,0.2466558,0.0118326,0.001252279,-0.02296944,0.0008430458,-0.008415647,0.0002252864,0.0258684,0.008460768
0.08264633,-0.04850995,0.2461531,0.01170282,0.001410499,-0.02500503,0.0009818254,-0.008432249,0.0001724561,0.02764412,0.008490968
0.08287143,-0.04847916,0.2456094,0.0115728,0.001584575,-0.02703704,0.001119839,-0.008408389,0.0001422233,0.02945237,0.008483824
0.08309384,-0.04844499,0.2450247,0.0114427,0.00175868,-0.0290647,0.00125602,-0.008384768,0.0001122963,0.03128554,0.008479064
0.08331359,-0.04840745,0.2443992,0.01131262,0.001932859,-0.03108747,0.001391383,-0.008361534,8.277607E-05,0.03313823,0.008476913
0.08353067,-0.04836656,0.2437329,0.01118268,0.002107114,-0.03310483,0.001525487,-0.008338457,5.357697E-05,0.03500602,0.008477018
0.08374509,-0.04832226,0.2430259,0.01105299,0.002281457,-0.03511623,0.001658007,-0.008315649,2.484217E-05,0.03688527,0.008479364
0.08395702,-0.04827425,0.2422786,0.01092364,0.002471954,-0.03712138,0.001775364,-0.00826973,4.595015E-05,0.03877413,0.008458278
0.08416647,-0.04822253,0.2414908,0.01079456,0.002662554,-0.03911959,0.001891469,-0.008224232,6.693791E-05,0.04066883,0.008439202
0.08437344,-0.04816709,0.240663,0.01066568,0.002853274,-0.04111041,0.002006427,-0.008179227,8.765325E-05,0.04256716,0.008422184
0.08457794,-0.04810793,0.2397951,0.0105369,0.003044099,-0.04309337,0.002120421,-0.008134671,0.0001083137,0.0444672,0.008407188
0.08477996,-0.04804503,0.2388874,0.01040814,0.003235027,-0.04506804,0.002232953,-0.008090524,0.0001288265,0.04636726,0.008394001
0.0849796,-0.04797821,0.23794,0.01027931,0.003433183,-0.04703405,0.002328761,-0.008058148,0.0001840284,0.04826648,0.008389919
0.08517686,-0.04790754,0.2369532,0.01015019,0.003631458,-0.04899095,0.002423795,-0.008026133,0.0002386959,0.050163,0.008387525
0.0853717,-0.04783295,0.2359272,0.01002056,0.003829882,-0.05093835,0.002517795,-0.007994401,0.0002928179,0.05205569,0.008386625
0.08556414,-0.04775448,0.2348622,0.009890217,0.004028425,-0.05287587,0.0026107,-0.007962949,0.0003465285,0.05394351,0.008387156
0.08575817,-0.04765928,0.2337402,0.009961016,0.00486806,-0.05570723,0.002702681,-0.007931886,0.0003996336,0.05679979,0.00838922
0.08595373,-0.04754756,0.2325616,0.01003068,0.005699426,-0.05852789,0.002800852,-0.007937388,0.0004420641,0.0596541,0.008428661
0.08615077,-0.04741922,0.2313264,0.01009903,0.006530941,-0.06133755,0.002897783,-0.007942798,0.0004842024,0.06250551,0.008468744
0.08634927,-0.04727431,0.230035,0.0101659,0.007362604,-0.06413584,0.002993553,-0.007948191,0.0005258308,0.06535258,0.0085095
0.0865492,-0.04711293,0.2286876,0.01023111,0.008194417,-0.06692239,0.003088737,-0.007953606,0.0005669297,0.06819406,0.008551113
0.08675052,-0.04693495,0.2272844,0.01029451,0.009026393,-0.06969681,0.003183113,-0.007958815,0.0006075716,0.07102886,0.008593258
0.08695301,-0.04674102,0.2258253,0.01035598,0.00983265,-0.0724584,0.003396533,-0.007994714,0.0005999947,0.0738522,0.008707002
0.08715665,-0.04653105,0.2243106,0.01041551,0.01063907,-0.07520665,0.003607976,-0.008030293,0.0005924334,0.07666624,0.008823495
0.0873614,-0.04630519,0.2227407,0.01047312,0.01144567,-0.07794074,0.003817692,-0.008065552,0.000585028,0.0794698,0.008942604
0.08756721,-0.04606335,0.2211156,0.01052885,0.01225246,-0.08065983,0.004025134,-0.008100459,0.000577765,0.0822617,0.009063827
0.08777405,-0.04580554,0.2194359,0.01058271,0.01305945,-0.08336311,0.004230625,-0.008134943,0.000570557,0.08504087,0.009187003
0.0879823,-0.04553185,0.2177021,0.01063475,0.01385866,-0.08604966,0.004366695,-0.008046946,0.0006710197,0.08780492,0.009179958
0.08819193,-0.04524232,0.2159145,0.01068456,0.01465809,-0.08871906,0.004501026,-0.007959792,0.0007707091,0.09055435,0.009176684
0.08840287,-0.04493679,0.2140734,0.01073173,0.01545775,-0.09137076,0.004633897,-0.007873321,0.0008693355,0.09328841,0.009177033
0.08861505,-0.04461544,0.2121792,0.01077587,0.01625761,-0.09400426,0.004765865,-0.007788016,0.00096723,0.09600641,0.009181623
0.08882842,-0.04427816,0.2102323,0.01081658,0.01705772,-0.09661902,0.004896467,-0.007703452,0.00106372,0.09870764,0.009189672
0.08904336,-0.04392592,0.2082335,0.01085358,0.01780811,-0.09921391,0.004933573,-0.00761082,0.001309641,0.1013821,0.009164054
0.08925974,-0.04355866,0.206183,0.0108858,0.01855876,-0.1017894,0.004970132,-0.007519191,0.001553264,0.1040385,0.009146205
0.08947746,-0.04317641,0.2040813,0.01091225,0.01930963,-0.1043454,0.005006272,-0.007428515,0.001794272,0.1066766,0.009135919
0.08969637,-0.04277914,0.2019287,0.01093199,0.02006073,-0.1068816,0.005041771,-0.007338746,0.002032958,0.1092961,0.009132884
0.08991632,-0.04236685,0.1997257,0.01094406,0.02081205,-0.1093981,0.005076929,-0.007249951,0.002269163,0.1118966,0.009137073
0.09013698,-0.04194189,0.1974727,0.01094781,0.02144818,-0.1118932,0.005114052,-0.007314994,0.002499032,0.1144551,0.009268647
0.09035818,-0.0415042,0.19517,0.01094204,0.02208453,-0.1143683,0.005150747,-0.007379424,0.00272685,0.1169938,0.009403287
0.09057967,-0.04105377,0.1928182,0.01092588,0.02272111,-0.1168231,0.005187011,-0.007443172,0.00295209,0.1195126,0.009540479
0.09080125,-0.04059059,0.1904176,0.01089842,0.02335788,-0.1192575,0.005222831,-0.007506283,0.003175189,0.1220111,0.009680086
0.09102267,-0.04011476,0.1879686,0.01085879,0.02399489,-0.1216714,0.005258451,-0.007568988,0.003395972,0.1244894,0.009822094
0.09124311,-0.03962947,0.1854714,0.01080655,0.02447285,-0.1240628,0.005361039,-0.007760377,0.003469627,0.1269145,0.01005
0.09146231,-0.03913466,0.1829266,0.01074099,0.02495098,-0.1264333,0.005462344,-0.007949889,0.003542665,0.1293186,0.01027562
0.09168,-0.03863031,0.1803345,0.01066183,0.02542934,-0.1287822,0.005562777,-0.008137543,0.003614916,0.1317011,0.01049913
0.09189589,-0.0381165,0.1776955,0.01056879,0.0259079,-0.1311094,0.005662451,-0.008323283,0.003686706,0.1340619,0.01072064
0.09210972,-0.03759319,0.1750102,0.0104616,0.02638668,-0.1334143,0.005761216,-0.008507014,0.003757557,0.1364005,0.01093984
0.09232078,-0.03706384,0.1722789,0.0103405,0.02669273,-0.1356948,0.005875932,-0.008678032,0.003686111,0.1386813,0.01110956
0.0925288,-0.03652849,0.1695021,0.01020526,0.026999,-0.1379523,0.005989606,-0.008847226,0.003615389,0.1409394,0.01127918
0.09273347,-0.0359871,0.1666803,0.01005618,0.02730547,-0.1401863,0.006102066,-0.009014767,0.003545122,0.1431744,0.01144854
0.09293456,-0.03543963,0.163814,0.009893515,0.02761216,-0.1423964,0.00621317,-0.009180594,0.003475931,0.1453858,0.01161761
0.0931318,-0.03488613,0.1609036,0.009717558,0.02791907,-0.1445821,0.00632322,-0.009344763,0.003407268,0.1475734,0.01178631
0.09332469,-0.03433022,0.1579496,0.009529185,0.02804506,-0.1467413,0.006485591,-0.009459102,0.003247747,0.1497008,0.01191996
0.09351301,-0.03377198,0.1549524,0.009328424,0.02817127,-0.148875,0.006646324,-0.009572183,0.003089673,0.1518039,0.01205597
0.09369651,-0.03321128,0.1519126,0.009115898,0.02829772,-0.1509828,0.006805593,-0.009684058,0.00293339,0.153882,0.01219434
0.09387499,-0.03264818,0.1488306,0.00889222,0.0284244,-0.1530639,0.006963138,-0.009795004,0.002778408,0.1559345,0.01233479
0.09404824,-0.03208268,0.1457072,0.008657999,0.02855128,-0.1551178,0.007119102,-0.00990465,0.002625177,0.157961,0.01247699
0.09421611,-0.031518,0.1425427,0.008414424,0.02851745,-0.1571423,0.007295856,-0.009912253,0.002459913,0.1599305,0.01255123
0.09437843,-0.03095414,0.1393377,0.008161559,0.02848385,-0.1591383,0.007471255,-0.009919743,0.002296227,0.1618732,0.01262908
0.09453503,-0.03039109,0.1360929,0.007900041,0.0284505,-0.1611051,0.007645057,-0.009927082,0.002134199,0.1637885,0.01271018
0.09468575,-0.02982884,0.1328089,0.0076305,0.02841738,-0.163042,0.007817192,-0.009934347,0.001973724,0.1656757,0.01279435
0.09483045,-0.02926739,0.1294861,0.007353563,0.02838452,-0.1649483,0.007987608,-0.009941427,0.001814986,0.1675342,0.01288131
0.09496926,-0.02870951,0.1261255,0.007070389,0.02821147,-0.1668222,0.008129169,-0.009837783,0.00171408,0.1693384,0.01287647
0.09510206,-0.02815526,0.1227276,0.006780826,0.0280387,-0.1686642,0.008269137,-0.009735402,0.001614195,0.1711133,0.01287487
0.09522875,-0.02760448,0.1192931,0.006485256,0.02786617,-0.170474,0.008407595,-0.009633893,0.001515673,0.1728583,0.01287621
0.09534919,-0.02705729,0.1158226,0.006184058,0.02769388,-0.1722509,0.008544803,-0.009533551,0.001418145,0.1745726,0.01288074
0.0954633,-0.02651367,0.1123168,0.005877604,0.02752186,-0.1739945,0.00868051,-0.009434023,0.001321545,0.1762557,0.01288792
0.09557115,-0.02597624,0.1087766,0.005566809,0.02721389,-0.175703,0.008774966,-0.009285112,0.001266854,0.1778851,0.01283816
0.09567264,-0.02544509,0.1052026,0.005251335,0.02690618,-0.1773772,0.008868543,-0.009137538,0.001212644,0.1794831,0.01279125
0.0957677,-0.02492012,0.1015955,0.004931383,0.02659872,-0.1790168,0.008960752,-0.008991554,0.001158949,0.1810492,0.01274701
0.09585622,-0.02440137,0.09795605,0.004607153,0.0262915,-0.1806214,0.009052197,-0.00884703,0.001105934,0.182583,0.01270572
0.09593814,-0.02388883,0.09428491,0.004278842,0.02598454,-0.1821906,0.00914287,-0.008704026,0.001053388,0.184084,0.01266735
0.09601323,-0.02338526,0.09058274,0.003947223,0.02553783,-0.1837231,0.009258959,-0.00857771,0.0009525973,0.1855315,0.01265752
0.09608141,-0.02289081,0.08685033,0.003612107,0.02509136,-0.1852194,0.009373871,-0.008452733,0.0008530449,0.1869461,0.01265092
0.09614263,-0.02240528,0.08308834,0.003273876,0.02464513,-0.1866791,0.009487495,-0.008328854,0.000754511,0.1883273,0.0126472
0.09619684,-0.02192882,0.07929756,0.002932905,0.02419914,-0.1881018,0.009599944,-0.00820629,0.0006569187,0.1896746,0.01264649
0.09624398,-0.02146135,0.07547873,0.002589569,0.02375336,-0.1894869,0.009711307,-0.008084838,0.0005604511,0.1909875,0.01264864
0.0962838,-0.02100535,0.07163253,0.002244744,0.02318633,-0.1908334,0.009852487,-0.007932726,0.0003737474,0.1922499,0.01265462
0.09631626,-0.0205608,0.06775974,0.001898645,0.02261955,-0.1921414,0.009992253,-0.007782061,0.0001891604,0.1934775,0.01266654
0.09634133,-0.02012767,0.06386115,0.001551985,0.02205297,-0.1934104,0.01013067,-0.007633015,6.503047E-06,0.1946697,0.01268438
0.09635906,-0.01970594,0.05993753,0.001205472,0.02148663,-0.1946398,0.01026773,-0.007485421,-0.0001744505,0.1958258,0.0127078
0.09636945,-0.01929569,0.05598971,0.0008598031,0.02092052,-0.1958291,0.01040343,-0.007339114,-0.0003535437,0.1969453,0.01273652
0.09637244,-0.01889868,0.05201843,0.0005160504,0.02026412,-0.1969773,0.01056277,-0.007107561,-0.0005867048,0.1980175,0.01274495
0.09636808,-0.01851493,0.04802452,0.0001747373,0.01960796,-0.1980842,0.01072068,-0.006878324,-0.0008174899,0.1990524,0.01276372
0.09635646,-0.01814441,0.04400881,-0.0001632429,0.018952,-0.1991493,0.01087713,-0.006651379,-0.001045941,0.2000491,0.01279245
0.09633765,-0.01778716,0.03997218,-0.0004970054,0.01829626,-0.2001719,0.01103187,-0.006426627,-0.00127191,0.201007,0.01283049
0.09631177,-0.01744311,0.03591547,-0.0008256751,0.01764072,-0.2011514,0.01118506,-0.00620401,-0.001495421,0.2019252,0.01287756
0.09627907,-0.01711328,0.03183957,-0.001148183,0.01693548,-0.202087,0.01133656,-0.005871871,-0.001703109,0.2027987,0.0128801
0.09623969,-0.01679772,0.02774538,-0.001463931,0.01623045,-0.2029783,0.01148681,-0.005543129,-0.001908707,0.2036315,0.01289636
0.09619378,-0.01649632,0.02363378,-0.001772125,0.01552564,-0.2038248,0.01163553,-0.005217561,-0.00211221,0.2044229,0.01292556
0.09614152,-0.01620916,0.01950571,-0.002071976,0.01482099,-0.2046257,0.01178284,-0.004895211,-0.002313515,0.2051722,0.0129673
0.09608309,-0.01593617,0.01536207,-0.002362708,0.01411654,-0.2053806,0.01192861,-0.004575971,-0.002512685,0.2058788,0.01302094
0.09601898,-0.01567762,0.01120386,-0.0026435,0.01340018,-0.2060889,0.01205467,-0.004168871,-0.002640515,0.206541,0.01302562
0.09594938,-0.01543345,0.007032029,-0.002913909,0.012684,-0.20675,0.01217979,-0.003765804,-0.002767125,0.2071592,0.01304552
0.09587452,-0.01520374,0.002847534,-0.003173448,0.01196797,-0.2073635,0.01230361,-0.003366655,-0.002892286,0.2077328,0.0130797
0.09579463,-0.01498845,-0.001348656,-0.003421633,0.01125214,-0.2079288,0.01242608,-0.002971459,-0.003016146,0.2082612,0.01312761
0.09570995,-0.01478748,-0.005555589,-0.003657986,0.0105364,-0.2084456,0.01254742,-0.002580291,-0.003138736,0.2087438,0.01318891
0.095621,-0.01460068,-0.009772081,-0.00388209,0.009836808,-0.2089133,0.01261811,-0.002141937,-0.00317725,0.2091808,0.0131871
0.09552804,-0.01442777,-0.01399721,-0.004093742,0.009137347,-0.2093317,0.01268786,-0.001707892,-0.003214991,0.209571,0.0131998
0.09543133,-0.01426893,-0.01822992,-0.004292798,0.008438006,-0.2097004,0.01275727,-0.001278036,-0.00325239,0.209914,0.01322722
0.09533109,-0.01412416,-0.02246925,-0.004479116,0.007738754,-0.2100191,0.01282624,-0.0008526678,-0.003289165,0.2102094,0.01326869
0.09522761,-0.01399344,-0.02671416,-0.004652553,0.007039577,-0.2102877,0.0128945,-0.0004314775,-0.003325524,0.2104569,0.01332342
0.09512121,-0.01387616,-0.0309636,-0.004813053,0.00636597,-0.2105058,0.01293552,-3.017175E-05,-0.003324621,0.210657,0.01335596
0.09501218,-0.01377241,-0.03521651,-0.004960535,0.005692437,-0.2106732,0.01297619,0.0003669699,-0.003323514,0.2108085,0.01340007
0.09490076,-0.01368211,-0.03947191,-0.005095003,0.005018935,-0.2107899,0.01301621,0.0007602911,-0.00332238,0.2109112,0.01345504
0.09478722,-0.01360536,-0.04372875,-0.005216463,0.004345477,-0.2108555,0.01305598,0.001149679,-0.003320872,0.2109648,0.01352068
0.0946718,-0.01354203,-0.04798603,-0.005324917,0.003672019,-0.2108701,0.01309547,0.001535249,-0.003319375,0.2109692,0.01359657
0.09455469,-0.01349156,-0.05224268,-0.005420469,0.003032714,-0.2108333,0.01312959,0.001882256,-0.003335565,0.2109247,0.0136768
0.09443613,-0.0134538,-0.0564977,-0.005502951,0.002393395,-0.210745,0.01316294,0.002225794,-0.00335157,0.2108305,0.01376409
0.0943164,-0.0134289,-0.06075004,-0.005572297,0.00175406,-0.2106052,0.01319642,0.002565858,-0.003367268,0.2106862,0.01385884
0.09419575,-0.0134168,-0.06499866,-0.005628441,0.001114681,-0.2104137,0.01322947,0.002902559,-0.003382709,0.2104919,0.01396018
0.09407444,-0.01341751,-0.06924252,-0.005671318,0.0004752427,-0.2101704,0.01326212,0.003235894,-0.003397859,0.2102474,0.0140677
0.09395266,-0.01343004,-0.07348062,-0.005700985,-0.0001161397,-0.2098749,0.01329883,0.003554075,-0.003440608,0.2099524,0.01418901
0.09383065,-0.01345445,-0.07771188,-0.005717144,-0.0007075965,-0.2095274,0.01333545,0.003869149,-0.003482618,0.2096066,0.01431548
0.09370871,-0.01349072,-0.08193526,-0.005719622,-0.001299158,-0.2091275,0.0133715,0.004181223,-0.003524245,0.2092098,0.01444645
0.09358709,-0.01353884,-0.08614972,-0.005708248,-0.001890808,-0.2086753,0.01340703,0.004490064,-0.00356542,0.2087619,0.01458154
0.09346609,-0.01359877,-0.09035422,-0.005682854,-0.002482608,-0.2081705,0.01344238,0.004795854,-0.003605957,0.2082628,0.01472076
0.09334602,-0.01366916,-0.09454764,-0.005643421,-0.003006801,-0.2076127,0.01346161,0.005117468,-0.0036348,0.2077112,0.01485312
0.09322718,-0.01375011,-0.09872892,-0.005589672,-0.003531188,-0.2070022,0.01348105,0.005435904,-0.00366355,0.2071078,0.01499031
0.09310984,-0.01384152,-0.102897,-0.005521485,-0.004055724,-0.2063388,0.01350027,0.005751232,-0.003691766,0.2064525,0.01513152
0.09299431,-0.01394346,-0.1070508,-0.005438738,-0.004580453,-0.2056224,0.01351914,0.006063369,-0.003719585,0.2057453,0.01527635
0.09288087,-0.01405588,-0.1111893,-0.005341309,-0.005105391,-0.204853,0.01353792,0.006372497,-0.003747016,0.2049863,0.01542479
0.09276999,-0.01417716,-0.1153113,-0.005229232,-0.00554812,-0.2040302,0.01352672,0.00669077,-0.003718671,0.2041726,0.01554242
0.09266195,-0.01430726,-0.1194158,-0.005102447,-0.005991101,-0.2031542,0.01351527,0.007005899,-0.003690511,0.2033066,0.01566413
0.09255707,-0.01444618,-0.1235017,-0.00496105,-0.006434351,-0.2022252,0.0135039,0.007317762,-0.003662551,0.2023884,0.01578984
0.0924556,-0.01459391,-0.127568,-0.004805137,-0.00687784,-0.2012433,0.01349284,0.007626621,-0.003634476,0.2014181,0.01591953
0.09235785,-0.01475061,-0.1316135,-0.004634803,-0.007321611,-0.2002084,0.01348242,0.007932504,-0.003607051,0.2003958,0.01605338
0.0922643,-0.01491432,-0.135637,-0.00445027,-0.007677689,-0.19912,0.01342313,0.008220184,-0.003508526,0.1993177,0.01612642
0.09217522,-0.01508503,-0.1396376,-0.004251773,-0.008034065,-0.197979,0.01336475,0.008505025,-0.003410782,0.1981875,0.01620449
0.09209087,-0.01526289,-0.1436142,-0.004039678,-0.008390769,-0.1967855,0.01330724,0.008787093,-0.003313969,0.1970057,0.01628736
0.09201153,-0.01544783,-0.1475657,-0.00381435,-0.008747801,-0.1955398,0.0132501,0.009066378,-0.003218035,0.1957725,0.01637437
0.09193744,-0.01563986,-0.151491,-0.003576148,-0.00910522,-0.194242,0.01319326,0.009342832,-0.003123143,0.1944882,0.01646526
0.09186893,-0.01583734,-0.1553891,-0.003325516,-0.009383798,-0.1928919,0.01309507,0.009559384,-0.002985232,0.1931486,0.01648558
0.09180624,-0.01604037,-0.1592589,-0.003062884,-0.009662762,-0.1914904,0.01299812,0.009773883,-0.002848793,0.1917585,0.01651047
0.09174959,-0.01624888,-0.1630993,-0.002788771,-0.009942099,-0.1900378,0.01290228,0.009986199,-0.002713436,0.1903181,0.01653952
0.09169921,-0.01646289,-0.1669094,-0.002503691,-0.01022188,-0.1885345,0.01280711,0.01019643,-0.002579369,0.188828,0.01657234
0.09165528,-0.01668245,-0.1706882,-0.002208154,-0.01050207,-0.186981,0.01271303,0.01040463,-0.002446727,0.1872887,0.01660915
0.09161793,-0.01690614,-0.1744345,-0.001902717,-0.01071887,-0.185377,0.01259506,0.01053424,-0.002319772,0.1856964,0.01658274
0.09158736,-0.01713422,-0.1781473,-0.001587806,-0.01093611,-0.1837235,0.01247874,0.01066241,-0.002194027,0.1840556,0.01655958
0.09156372,-0.01736641,-0.1818259,-0.001263898,-0.01115379,-0.1820211,0.01236321,0.01078944,-0.002069674,0.1823669,0.01653918
0.09154719,-0.017603,-0.185469,-0.0009314679,-0.01137194,-0.18027,0.01224917,0.01091505,-0.001946335,0.1806308,0.01652176
0.09153793,-0.01784374,-0.1890758,-0.0005909834,-0.01159054,-0.1784709,0.01213636,0.01103948,-0.001824133,0.1788478,0.01650724
0.09153593,-0.01808783,-0.1926453,-0.0002429414,-0.01175931,-0.1766236,0.01201831,0.0110994,-0.001737082,0.1770148,0.01645157
0.09154133,-0.01833519,-0.1961766,0.0001123635,-0.01192859,-0.1747291,0.01190168,0.01115877,-0.001650917,0.1751358,0.01639798
0.09155428,-0.01858585,-0.1996687,0.0004746057,-0.01209831,-0.1727878,0.01178618,0.01121747,-0.00156562,0.1732115,0.01634616
0.09157488,-0.01883985,-0.2031207,0.0008434635,-0.01226854,-0.1708003,0.01167192,0.01127577,-0.001481164,0.1712424,0.01629633
0.09160329,-0.01909715,-0.2065317,0.001218618,-0.01243927,-0.1687669,0.0115587,0.0113333,-0.00139745,0.1692291,0.01624808
0.09163951,-0.01935689,-0.2099007,0.001599732,-0.01256627,-0.1666876,0.0114344,0.0113637,-0.001334956,0.1671683,0.01617595
0.09168368,-0.01961903,-0.2132269,0.001986595,-0.01269381,-0.1645634,0.01131107,0.01139395,-0.001272946,0.1650642,0.01610536
0.0917359,-0.01988366,-0.2165094,0.002378974,-0.01282184,-0.1623948,0.01118956,0.01142397,-0.001211638,0.1629176,0.01603688
0.09179626,-0.02015086,-0.2197472,0.002776641,-0.01295041,-0.1601822,0.01106918,0.01145366,-0.001150772,0.1607289,0.01596989
0.09186489,-0.02042039,-0.2229395,0.003179367,-0.01307946,-0.1579262,0.01094974,0.01148304,-0.001090791,0.1584988,0.0159043
0.09194189,-0.02069175,-0.2260854,0.003586915,-0.01316966,-0.1556266,0.01080968,0.01150428,-0.0010181,0.156224,0.01581879
0.09202737,-0.02096468,-0.2291841,0.003999024,-0.01326036,-0.1532846,0.01067075,0.0115252,-0.0009462929,0.1539091,0.01573501
0.09212139,-0.02123941,-0.2322347,0.004415425,-0.01335159,-0.1509006,0.01053336,0.01154594,-0.0008750315,0.1515545,0.01565331
0.09222404,-0.02151586,-0.2352364,0.004835846,-0.01344335,-0.1484753,0.01039722,0.01156647,-0.0008046938,0.1491611,0.01557347
0.0923354,-0.02179405,-0.2381883,0.005260023,-0.01353566,-0.1460091,0.0102629,0.0115868,-0.0007348944,0.1467295,0.01549584
0.09245563,-0.02207327,-0.2410896,0.005687684,-0.01359671,-0.1435022,0.01009168,0.01159511,-0.0006300703,0.1442571,0.01538459
0.09258478,-0.02235371,-0.2439394,0.006118436,-0.0136583,-0.1409557,0.009922322,0.01160336,-0.0005260986,0.141748,0.01527636
0.09272292,-0.02263509,-0.2467371,0.00655188,-0.01372042,-0.1383702,0.009754661,0.01161135,-0.0004231737,0.139203,0.01517089
0.09287009,-0.0229177,-0.2494817,0.00698762,-0.01378307,-0.1357463,0.009588873,0.01161926,-0.0003211812,0.1366231,0.01506841
0.09302631,-0.02320145,-0.2521726,0.007425266,-0.01384625,-0.1330848,0.009424493,0.01162709,-0.0002204093,0.134009,0.0149686
0.09319166,-0.02348599,-0.254809,0.007864428,-0.01389395,-0.130386,0.009228542,0.01159965,-9.807786E-05,0.1313598,0.0148232
0.09336617,-0.02377136,-0.25739,0.008304634,-0.01394221,-0.1276509,0.00903521,0.01157244,2.304206E-05,0.1286783,0.01468185
0.09354983,-0.02405749,-0.2599151,0.008745417,-0.01399098,-0.1248804,0.008843219,0.0115455,0.0001428871,0.1259656,0.01454378
0.09374263,-0.02434453,-0.2623835,0.009186313,-0.01404026,-0.1220751,0.008654036,0.01151891,0.000261392,0.1232228,0.01440992
0.09394459,-0.02463241,-0.2647945,0.009626861,-0.01409006,-0.1192358,0.008466185,0.01149243,0.000379191,0.1204508,0.01427922
0.09415559,-0.02492121,-0.2671474,0.01006661,-0.01414274,-0.1163633,0.008256098,0.01142105,0.0004842723,0.1176511,0.01410099
0.09437565,-0.02521081,-0.2694416,0.01050514,-0.0141959,-0.1134583,0.008048048,0.01135019,0.0005885672,0.1148245,0.01392639
0.09460469,-0.0255014,-0.2716764,0.01094205,-0.01424959,-0.1105218,0.007842334,0.01128016,0.0006917814,0.1119725,0.01375583
0.09484269,-0.02579293,-0.2738513,0.01137694,-0.01430374,-0.1075544,0.007638172,0.01121075,0.0007941144,0.1090962,0.01358872
0.09508959,-0.02608536,-0.2759656,0.01180941,-0.01435837,-0.104557,0.007436265,0.01114204,0.0008952566,0.1061969,0.01342552
0.09534518,-0.02637914,-0.2780187,0.01223906,-0.01443231,-0.1015307,0.007232026,0.0110373,0.0009541922,0.1032791,0.01323007
0.09560941,-0.02667429,-0.2800102,0.01266567,-0.01450673,-0.09847594,0.007029533,0.01093354,0.001012562,0.1003413,0.01303771
0.09588221,-0.02697074,-0.2819394,0.013089,-0.01458159,-0.09539359,0.006829044,0.01083081,0.001070551,0.09738522,0.01284867
0.09616349,-0.0272686,-0.2838058,0.01350882,-0.0146569,-0.09228441,0.006630665,0.010729,0.001127663,0.09441253,0.01266289
0.09645319,-0.0275678,-0.2856088,0.01392491,-0.01473263,-0.08914918,0.00643432,0.01062816,0.001184497,0.09142499,0.01248044
0.09675111,-0.0278689,-0.2873481,0.01433706,-0.0148347,-0.0859891,0.006237241,0.01052362,0.001200209,0.08842932,0.01229188
0.09705715,-0.0281719,-0.2890231,0.01474518,-0.01493718,-0.08280451,0.00604177,0.01042012,0.001215794,0.08542322,0.0121062
0.09737125,-0.02847685,-0.2906333,0.01514923,-0.01504007,-0.07959618,0.005848058,0.01031762,0.001231127,0.08240907,0.01192345
0.09769332,-0.02878362,-0.2921783,0.01554913,-0.01514335,-0.07636487,0.005656933,0.01021618,0.001246715,0.07938948,0.01174417
0.09802327,-0.02909246,-0.2936577,0.01594482,-0.015247,-0.07311133,0.005467478,0.01011572,0.001261919,0.07636736,0.01156778
0.098361,-0.02940366,-0.2950709,0.01633626,-0.01537767,-0.06983676,0.005271294,0.01003763,0.001262876,0.07335202,0.01140769
0.09870642,-0.0297174,-0.2964177,0.01672342,-0.0155087,-0.06654148,0.005077345,0.009960296,0.001264081,0.07034174,0.01125099
0.09905943,-0.03003362,-0.2976976,0.0171063,-0.01564009,-0.06322625,0.004885647,0.009883692,0.001265159,0.0673409,0.01109764
0.09941997,-0.03035235,-0.2989102,0.0174849,-0.01577181,-0.05989181,0.004695576,0.009807893,0.001266445,0.06435449,0.01094747
0.09978794,-0.03067357,-0.3000552,0.01785921,-0.01590386,-0.05653892,0.004507606,0.009732776,0.001267924,0.06138839,0.01080061
0.1001633,-0.03099779,-0.3011321,0.01822923,-0.01606131,-0.05316876,0.004297534,0.00968647,0.001283264,0.05845672,0.01067442
0.100546,-0.03132503,-0.3021407,0.01859489,-0.01621905,-0.04978171,0.004090138,0.00964074,0.001298402,0.05556119,0.01055268
0.100936,-0.03165527,-0.3030806,0.01895613,-0.01637709,-0.04637858,0.003884299,0.009595279,0.001313312,0.05271164,0.01043465
0.1013331,-0.03198855,-0.3039514,0.0193129,-0.01653542,-0.04296018,0.003680834,0.009550272,0.001328267,0.04991978,0.01032088
0.1017372,-0.03232483,-0.304753,0.01966513,-0.01669401,-0.0395273,0.003478853,0.00950579,0.001343269,0.04719974,0.01021111
0.1021484,-0.03266467,-0.305485,0.02001278,-0.01688048,-0.03608125,0.00325809,0.009472629,0.001372414,0.04457936,0.01011085
0.1025665,-0.03300811,-0.3061472,0.02035573,-0.01706719,-0.03262239,0.003039885,0.009439725,0.001401197,0.04206976,0.01001562
0.1029914,-0.03335515,-0.3067393,0.02069385,-0.01725413,-0.02915157,0.002823793,0.009407,0.00143008,0.03969577,0.00992525
0.103423,-0.0337057,-0.3072611,0.02102704,-0.01744127,-0.02566963,0.002609674,0.009374677,0.001458506,0.03748685,0.009839828
0.1038613,-0.03405997,-0.3077124,0.02135518,-0.01762863,-0.02217743,0.002398073,0.009342753,0.001486922,0.03547747,0.009759545
0.1043061,-0.03441831,-0.308093,0.02167819,-0.01784699,-0.01867636,0.002170417,0.009310582,0.001509948,0.03372336,0.009678718
0.1047572,-0.03478099,-0.3084027,0.02199594,-0.01806553,-0.01516674,0.00194559,0.009278656,0.001532751,0.03225236,0.009603546
0.1052147,-0.03514779,-0.3086414,0.02230836,-0.01828422,-0.01164945,0.00172272,0.009247012,0.001555264,0.03110764,0.009533825
0.1056783,-0.03551884,-0.308809,0.02261535,-0.01850304,-0.008125375,0.001501893,0.009215722,0.001577841,0.03032883,0.009469678
0.1061481,-0.03589405,-0.3089052,0.02291682,-0.01872198,-0.004595374,0.001283532,0.009184858,0.001600054,0.02994679,0.009411124
0.1066237,-0.03627423,-0.3089302,0.02321271,-0.01897414,-0.001060921,0.001065573,0.009152528,0.001593195,0.02999956,0.009351068
0.107105,-0.03665929,-0.3088836,0.02350302,-0.01922642,0.002477746,0.0008503022,0.009120597,0.001586282,0.03046615,0.009296482
0.107592,-0.03704923,-0.3087656,0.02378778,-0.01947875,0.006019783,0.0006365161,0.009088985,0.001579596,0.03132918,0.009247158
0.1080846,-0.03744414,-0.3085761,0.024067,-0.01973113,0.009564353,0.0004255103,0.009057538,0.001573013,0.03255787,0.009202957
0.1085826,-0.03784382,-0.308315,0.02434072,-0.01998356,0.01311063,0.0002161501,0.009026481,0.001566214,0.03411308,0.009163902
0.1090858,-0.03824905,-0.3079823,0.02460898,-0.0202639,0.01665727,8.394261E-06,0.009013409,0.001528655,0.03596793,0.009142122
0.1095942,-0.03865971,-0.3075781,0.02487191,-0.02054425,0.02020398,-0.0001978893,0.009000467,0.001491328,0.03806414,0.009125329
0.1101075,-0.03907585,-0.3071023,0.02512965,-0.02082458,0.02374995,-0.0004018711,0.008987655,0.001454463,0.04036363,0.009113447
0.1106259,-0.03949746,-0.306555,0.02538235,-0.0211049,0.02729438,-0.0006039426,0.008974933,0.00141802,0.04283297,0.009106314
0.111149,-0.0399245,-0.3059363,0.02563014,-0.02138518,0.03083649,-0.0008041958,0.008962301,0.001382157,0.04544358,0.009103841
0.1116769,-0.04035744,-0.3052462,0.02587318,-0.02168342,0.03437514,-0.0009995217,0.008982085,0.001331354,0.04817928,0.009135064
0.1122094,-0.04079616,-0.3044848,0.02611166,-0.0219816,0.03790991,-0.001193254,0.00900167,0.001281181,0.05101148,0.009170352
0.1127465,-0.0412407,-0.3036522,0.02634578,-0.02227969,0.04144005,-0.001384628,0.009021022,0.001231652,0.05392367,0.009209397
0.113288,-0.04169106,-0.3027486,0.02657572,-0.02257767,0.04496479,-0.001574367,0.009040181,0.001182533,0.05690213,0.009252128
0.1138122,-0.04214013,-0.3017733,0.0257128,-0.02251782,0.04851966,-0.001761831,0.009059148,0.001133744,0.05934945,0.009298258
0.1143189,-0.04258793,-0.3007264,0.02484609,-0.02246206,0.05206758,-0.001962746,0.009122148,0.001100286,0.06191046,0.009395562
0.1148082,-0.04303447,-0.2996081,0.02397574,-0.02240616,0.05560785,-0.002161683,0.009184368,0.001067228,0.0645686,0.009495497
0.1152799,-0.04347976,-0.2984186,0.02310186,-0.0223501,0.05913968,-0.002358893,0.009246003,0.001034298,0.06731066,0.009598058
0.1157341,-0.04392371,-0.2971581,0.0222246,-0.02229388,0.06266231,-0.002553872,0.009307097,0.001001876,0.070125,0.009702993
0.1161706,-0.04436652,-0.2958267,0.02134407,-0.02223748,0.06617497,-0.002746845,0.009367504,0.0009696984,0.07300138,0.009809975
0.1165895,-0.04480799,-0.2944245,0.02046042,-0.02218494,0.06967682,-0.003008848,0.009491547,0.0009840203,0.07593194,0.01000554
0.1169908,-0.04524827,-0.2929517,0.0195736,-0.02213222,0.07316693,-0.003268083,0.009614161,0.0009982934,0.07890729,0.01020338
0.1173745,-0.04568731,-0.2914085,0.01868354,-0.02207924,0.07664426,-0.003524961,0.009735625,0.001012454,0.08192015,0.0104035
0.1177404,-0.04612511,-0.2897954,0.01779021,-0.02202602,0.08010783,-0.003779398,0.009855761,0.001026533,0.08496412,0.01060536
0.1180886,-0.04656164,-0.2881125,0.01689354,-0.02197255,0.08355662,-0.004031157,0.009974771,0.00104027,0.08803348,0.01080872
0.1184186,-0.04699741,-0.28636,0.01599354,-0.02194555,0.08698918,-0.004343514,0.01004206,0.001000962,0.09112913,0.01098686
0.1187305,-0.04743243,-0.2845382,0.01509033,-0.02191825,0.09040476,-0.004653042,0.01010856,0.000962185,0.09423984,0.01116959
0.1190243,-0.04786666,-0.2826476,0.01418404,-0.02189064,0.09380214,-0.004959449,0.01017459,0.0009236088,0.09736133,0.01135656
0.1192997,-0.04830013,-0.2806885,0.01327484,-0.02186269,0.09718013,-0.005263054,0.01023988,0.0008852414,0.1004897,0.01154723
0.1195569,-0.04873281,-0.2786613,0.01236288,-0.02183437,0.1005375,-0.005563268,0.01030437,0.0008474583,0.1036213,0.01174087
0.1197949,-0.04916571,-0.2765671,0.01144836,-0.02184847,0.1038724,-0.005663543,0.01027247,0.0005563041,0.106761,0.01174346
0.1200136,-0.04959884,-0.2744064,0.01053237,-0.02186218,0.1071852,-0.005762862,0.0102409,0.0002682787,0.1098979,0.01175409
0.1202132,-0.05003218,-0.2721795,0.009616014,-0.0218755,0.1104754,-0.005861449,0.01020957,-1.675311E-05,0.1130302,0.01177252
0.1203935,-0.05046573,-0.2698871,0.008700416,-0.02188845,0.1137427,-0.005958843,0.01017862,-0.0002991376,0.1161559,0.01179837
0.1205547,-0.05089949,-0.2675294,0.007786673,-0.02190098,0.1169867,-0.006055187,0.01014776,-0.0005784575,0.1192735,0.01183118
0.1206968,-0.05133262,-0.2651072,0.006875813,-0.02187313,0.1202077,-0.006127799,0.01032635,-0.0009309968,0.1223748,0.01204368
0.1208197,-0.05176517,-0.2626207,0.005969285,-0.02184486,0.1234047,-0.006200046,0.01050282,-0.001280114,0.1254653,0.0122633
0.1209238,-0.05219708,-0.2600707,0.005068468,-0.02181621,0.1265774,-0.006271605,0.01067778,-0.001625925,0.1285437,0.01248966
0.121009,-0.0526284,-0.2574574,0.004174722,-0.02178712,0.1297256,-0.006342464,0.0108507,-0.001968027,0.1316087,0.01272154
0.1210756,-0.05305906,-0.2547815,0.003289397,-0.02175763,0.132849,-0.00641284,0.01102211,-0.002306916,0.1346591,0.01295891
0.1211245,-0.05348729,-0.2520431,0.002413706,-0.0216375,0.1359487,-0.00655337,0.01143112,-0.002478901,0.137681,0.01340754
0.1211559,-0.05391297,-0.2492429,0.00154847,-0.02151693,0.1390228,-0.006692828,0.0118359,-0.002649157,0.1406866,0.01385282
0.1211699,-0.05433621,-0.2463813,0.0006943763,-0.02139595,0.1420707,-0.006830781,0.01223659,-0.002817533,0.1436745,0.01429448
0.1211669,-0.0547568,-0.243459,-0.0001478957,-0.02127451,0.1450918,-0.00696788,0.01263346,-0.002984591,0.1466433,0.01473308
0.1211471,-0.05517502,-0.2404763,-0.0009776722,-0.02115262,0.1480857,-0.007103203,0.01302629,-0.00315012,0.149592,0.01516783
0.1211114,-0.0555884,-0.2374337,-0.001794393,-0.02092619,0.1510533,-0.007304076,0.0134735,-0.003106553,0.1525065,0.01563763
0.12106,-0.05599722,-0.2343317,-0.002598097,-0.02069931,0.1539924,-0.00750225,0.01391609,-0.003063629,0.155399,0.01610363
0.1209934,-0.05640125,-0.231171,-0.003388932,-0.02047195,0.156902,-0.007698811,0.01435436,-0.003021052,0.1582682,0.01656641
0.1209116,-0.05680063,-0.2279521,-0.004167047,-0.02024412,0.1597814,-0.007893206,0.01478825,-0.002978983,0.1611127,0.01702555
0.1208149,-0.05719531,-0.2246757,-0.004932592,-0.02001582,0.1626299,-0.008085492,0.01521792,-0.002936964,0.1639313,0.01748102
0.1207038,-0.05758337,-0.2213423,-0.005685783,-0.01969104,0.1654481,-0.008286539,0.01557059,-0.002801794,0.1667128,0.01785945
0.1205786,-0.05796473,-0.2179526,-0.006427066,-0.01936574,0.1682338,-0.008485538,0.01591988,-0.002667967,0.1694667,0.01823637
0.1204394,-0.05833937,-0.2145073,-0.007156957,-0.01903997,0.1709862,-0.008682449,0.01626568,-0.002535409,0.1721919,0.01861144
0.1202866,-0.05870736,-0.2110071,-0.007875969,-0.0187137,0.1737046,-0.008877224,0.01660807,-0.002404085,0.1748871,0.01898454
0.1201202,-0.05906873,-0.2074526,-0.008584608,-0.01838695,0.1763881,-0.009069878,0.01694691,-0.002274239,0.1775515,0.01935543
0.1199404,-0.05942164,-0.2038445,-0.009283415,-0.01797575,0.1790371,-0.009310749,0.01721677,-0.002151057,0.1801766,0.01969097
0.1197473,-0.05976613,-0.2001833,-0.009972831,-0.01756404,0.1816496,-0.009549357,0.01748381,-0.002029194,0.1827691,0.02002477
0.1195413,-0.06010216,-0.19647,-0.01065333,-0.01715182,0.1842246,-0.009785229,0.01774826,-0.001908345,0.1853278,0.02035665
0.1193224,-0.06042989,-0.1927052,-0.01132539,-0.01673909,0.1867612,-0.01001887,0.01801011,-0.001788874,0.1878515,0.02068675
0.1190907,-0.06074899,-0.1888899,-0.01198949,-0.01632582,0.1892584,-0.0102504,0.01826941,-0.001670532,0.1903392,0.02101506
0.1188461,-0.06105871,-0.1850248,-0.01264609,-0.01585846,0.191716,-0.01042788,0.01842615,-0.001657943,0.192786,0.02123705
0.1185886,-0.06135896,-0.1811109,-0.01329524,-0.01539057,0.1941327,-0.0106037,0.01858132,-0.001645296,0.1951951,0.02145719
0.1183185,-0.06164961,-0.177149,-0.01393699,-0.01492216,0.1965077,-0.01077786,0.01873495,-0.001632849,0.1975656,0.02167548
0.1180359,-0.06193089,-0.1731398,-0.01457141,-0.01445323,0.1988403,-0.01094975,0.01888696,-0.001620557,0.1998967,0.02189156
0.1177409,-0.06220254,-0.1690844,-0.01519856,-0.01398377,0.2011299,-0.01112022,0.01903749,-0.001608517,0.2021874,0.02210594
0.1174333,-0.06246352,-0.1649838,-0.01581848,-0.01345313,0.2033764,-0.01122767,0.01917548,-0.001686156,0.2044338,0.02228459
0.1171134,-0.06271381,-0.1608388,-0.01643088,-0.01292197,0.2055789,-0.01133404,0.0193121,-0.001763114,0.2066389,0.02246167
0.1167813,-0.06295339,-0.1566503,-0.01703548,-0.0123903,0.2077367,-0.01143931,0.01944724,-0.001838977,0.208802,0.02263702
0.1164371,-0.06318225,-0.1524193,-0.01763197,-0.01185812,0.2098496,-0.01154392,0.01958114,-0.0019141,0.2109226,0.02281111
0.1160811,-0.06340033,-0.1481466,-0.01822008,-0.01132545,0.2119171,-0.01164764,0.01971366,-0.001988599,0.2130002,0.0229837
0.1157135,-0.06360603,-0.1438332,-0.01879952,-0.01070921,0.2139396,-0.01174127,0.01991975,-0.002016489,0.2150308,0.02321034
0.1153346,-0.0637993,-0.13948,-0.01937019,-0.0100925,0.2159159,-0.01183424,0.02012389,-0.002044291,0.2170179,0.023435
0.1149445,-0.06398021,-0.135088,-0.01993199,-0.009475306,0.2178457,-0.01192624,0.02032606,-0.002071541,0.2189608,0.02365745
0.1145435,-0.06414867,-0.130658,-0.02048483,-0.008857638,0.2197285,-0.01201748,0.02052621,-0.002098709,0.220859,0.02387781
0.1141317,-0.06430475,-0.126191,-0.02102862,-0.008239493,0.221564,-0.01210759,0.02072428,-0.002125323,0.2227122,0.02409578
0.1137097,-0.06444641,-0.1216879,-0.02156322,-0.007531196,0.2233527,-0.01226529,0.02097249,-0.001996561,0.2245176,0.02437763
0.1132779,-0.06457391,-0.1171494,-0.02208917,-0.006822437,0.2250931,-0.01242105,0.02121833,-0.001869167,0.2262772,0.02465753
0.1128362,-0.06468698,-0.1125767,-0.02260701,-0.006113216,0.2267846,-0.01257528,0.02146179,-0.001743117,0.2279906,0.02493561
0.1123849,-0.06478575,-0.1079707,-0.02311723,-0.005403578,0.2284265,-0.01272792,0.02170285,-0.00161822,0.2296568,0.02521175
0.1119242,-0.06487023,-0.1033325,-0.02362034,-0.004693523,0.2300183,-0.01287907,0.02194154,-0.001494376,0.2312755,0.02548597
0.1114543,-0.0649391,-0.09866288,-0.0241168,-0.003924474,0.2315598,-0.01305353,0.02209185,-0.001266584,0.2328453,0.02569141
0.1109754,-0.06499254,-0.09396295,-0.02460757,-0.003155008,0.2330498,-0.01322579,0.02224062,-0.001040989,0.2343666,0.02589692
0.1104876,-0.06503032,-0.08923378,-0.02509354,-0.002385125,0.2344878,-0.01339627,0.0223879,-0.0008177587,0.2358387,0.02610262
0.109991,-0.06505261,-0.0844764,-0.02557562,-0.001614854,0.2358729,-0.01356489,0.02253389,-0.0005967206,0.2372609,0.02630853
0.1094856,-0.06505937,-0.0796919,-0.0260547,-0.0008441955,0.2372046,-0.01373177,0.02267847,-0.0003776356,0.2386327,0.02651447
0.1089713,-0.06505004,-0.07488133,-0.02653165,-5.029142E-05,0.2384823,-0.01390336,0.02269096,-0.0001726989,0.2399536,0.02661227
0.1084481,-0.06502473,-0.07004579,-0.0270073,0.0007439852,0.2397052,-0.01407279,0.02270326,3.036779E-05,0.241223,0.0267111
0.1079161,-0.06498332,-0.06518642,-0.02748249,0.001538634,0.2408726,-0.01424074,0.02271555,0.000231274,0.2424402,0.02681135
0.1073752,-0.06492592,-0.06030433,-0.02795803,0.002333641,0.2419839,-0.01440692,0.02272771,0.0004303895,0.2436048,0.0269127
0.1068254,-0.0648524,-0.05540065,-0.02843474,0.003128991,0.2430383,-0.01457108,0.02273991,0.0006272978,0.2447161,0.02701506
0.1062662,-0.06476314,-0.05047667,-0.02891341,0.003911451,0.2440353,-0.01469458,0.02263736,0.0007185601,0.2457733,0.0269981
0.1056976,-0.06465811,-0.04553355,-0.02939443,0.004694209,0.2449743,-0.01481691,0.02253592,0.0008088013,0.2467762,0.02698263
0.1051196,-0.06453738,-0.04057242,-0.02987819,0.005477279,0.245855,-0.014938,0.02243549,0.0008984185,0.2477244,0.02696854
0.104532,-0.06440078,-0.03559452,-0.03036506,0.006260619,0.2466768,-0.01505793,0.02233599,0.0009870687,0.2486175,0.02695574
0.1039349,-0.06424844,-0.03060103,-0.03085542,0.007044241,0.2474392,-0.0151765,0.0222374,0.001074853,0.249455,0.02694408
0.1033277,-0.06408089,-0.02559327,-0.03134966,0.007799685,0.2481417,-0.01524323,0.02210015,0.001052738,0.2502357,0.02686784
0.1027104,-0.06389825,-0.02057246,-0.03184772,0.008555368,0.2487841,-0.01530925,0.0219642,0.00103107,0.2509601,0.02679295
0.1020829,-0.06370031,-0.01553984,-0.03234952,0.009311274,0.2493662,-0.01537482,0.02182968,0.001009684,0.2516281,0.02671965
0.1014452,-0.0634873,-0.01049657,-0.03285501,0.01006739,0.2498877,-0.01543932,0.02169636,0.0009887014,0.2522393,0.02664736
0.1007971,-0.06325907,-0.005443897,-0.03336415,0.01082368,0.2503484,-0.01550342,0.02156448,0.0009678435,0.2527937,0.02657667
0.1001386,-0.06301618,-0.0003831908,-0.03387688,0.01155378,0.250748,-0.01552116,0.02146035,0.0009136525,0.2532897,0.02650071
0.09946948,-0.06275869,0.004684336,-0.03439301,0.01228403,0.2510864,-0.01553865,0.02135727,0.0008599432,0.2537285,0.02642579
0.0987898,-0.06248659,0.009757463,-0.03491236,0.01301439,0.2513636,-0.01555627,0.02125522,0.0008069788,0.25411,0.0263521
0.09809945,-0.06219982,0.01483495,-0.03543474,0.01374489,0.2515795,-0.01557397,0.02115404,0.000754485,0.2544343,0.02627948
0.09739837,-0.0618984,0.01991557,-0.03595997,0.01447546,0.2517341,-0.01559134,0.02105379,0.0007025374,0.2547012,0.02620774
0.09668677,-0.06158269,0.02499813,-0.03648788,0.01518802,0.2518272,-0.01561991,0.02101165,0.0007139097,0.2549098,0.02619123
0.09596457,-0.06125276,0.03008142,-0.03701854,0.01590061,0.2518589,-0.01564809,0.02097012,0.0007252073,0.2550609,0.02617508
0.09523172,-0.06090847,0.03516417,-0.03755202,0.01661325,0.2518289,-0.01567612,0.02092882,0.0007363293,0.2551547,0.0261591
0.09448817,-0.06054988,0.04024515,-0.03808838,0.01732589,0.2517371,-0.01570376,0.02088785,0.0007472291,0.2551911,0.02614323
0.09373385,-0.06017708,0.04532317,-0.0386277,0.01803853,0.2515836,-0.01573092,0.0208474,0.0007581392,0.2551701,0.02612759
0.09296893,-0.05979052,0.05039696,-0.03917005,0.01872085,0.2513681,-0.01577218,0.02080061,0.0008444995,0.2550896,0.02611781
0.09219334,-0.05939025,0.05546533,-0.03971578,0.0194031,0.2510905,-0.01581267,0.0207542,0.0009297106,0.2549514,0.02610827
0.091407,-0.05897634,0.06052702,-0.04026527,0.02008529,0.2507506,-0.01585288,0.02070837,0.001014083,0.2547559,0.0260994
0.09060983,-0.05854867,0.06558076,-0.04081886,0.02076738,0.2503483,-0.01589272,0.02066307,0.001097915,0.254503,0.02609112
0.08980173,-0.05810741,0.07062533,-0.04137692,0.02144936,0.2498835,-0.0159322,0.02061823,0.001180665,0.2541926,0.02608334
0.08898257,-0.05765344,0.07565945,-0.0419398,0.02207835,0.249356,-0.01596753,0.02050873,0.001265865,0.2538205,0.02602254
0.08815224,-0.05718684,0.08068188,-0.04250785,0.02270722,0.2487658,-0.01600214,0.02040024,0.001350139,0.2533909,0.02596269
0.08731062,-0.05670764,0.08569132,-0.04308144,0.0233359,0.2481125,-0.01603651,0.020293,0.001433637,0.2529039,0.02590426
0.0864576,-0.05621587,0.09068654,-0.0436609,0.02396441,0.2473961,-0.01607013,0.02018675,0.001516263,0.2523597,0.02584672
0.08559305,-0.05571143,0.09566627,-0.04424659,0.02459267,0.2466165,-0.01610375,0.02008164,0.001598176,0.2517583,0.02579064
0.08471655,-0.05519587,0.1006291,-0.04483887,0.02514662,0.2457738,-0.01609427,0.01990488,0.001597766,0.2510929,0.02564727
0.08382794,-0.05466927,0.1055738,-0.04543775,0.02570029,0.2448678,-0.01608471,0.01972989,0.001597335,0.2503704,0.02550564
0.08292712,-0.05413163,0.1104991,-0.04604324,0.02625369,0.2438985,-0.01607517,0.01955665,0.001597164,0.2495911,0.02536581
0.08201392,-0.05358291,0.1154037,-0.04665536,0.02680682,0.242866,-0.01606598,0.01938517,0.001597075,0.2487554,0.02522799
0.08108824,-0.05302306,0.1202864,-0.04727415,0.02735963,0.2417703,-0.01605668,0.01921538,0.001596657,0.2478634,0.02509177
0.08014961,-0.05245376,0.1251457,-0.04789961,0.02783448,0.2406119,-0.01599656,0.0190318,0.001494021,0.2469073,0.02490645
0.07919791,-0.0518751,0.1299804,-0.04853136,0.02830896,0.2393906,-0.01593715,0.01885009,0.001392365,0.2458954,0.02472362
0.07823303,-0.05128694,0.1347893,-0.04916902,0.02878305,0.2381067,-0.01587834,0.01867027,0.001291637,0.2448282,0.02454321
0.07725486,-0.05068929,0.139571,-0.04981222,0.02925679,0.2367604,-0.01582023,0.01849226,0.001192062,0.2437062,0.02436523
0.07626331,-0.05008227,0.1443245,-0.05046057,0.02973011,0.2353518,-0.01576274,0.01831587,0.0010934,0.2425297,0.02418947
0.07525814,-0.04946721,0.1490481,-0.05111371,0.0301367,0.2338818,-0.01565189,0.01818109,0.0009394223,0.2412914,0.02400867
0.07423927,-0.04884408,0.1537409,-0.05177105,0.03054287,0.2323503,-0.01554229,0.01804766,0.0007868319,0.2399995,0.02383064
0.07320663,-0.04821295,0.1584014,-0.05243202,0.03094856,0.2307577,-0.01543397,0.01791541,0.0006359126,0.2386547,0.0236553
0.07216018,-0.04757372,0.1630286,-0.05309603,0.0313538,0.2291045,-0.01532667,0.01778455,0.0004865054,0.2372575,0.02348263
0.07109986,-0.04692657,0.1676211,-0.05376252,0.03175853,0.2273911,-0.01522027,0.01765493,0.0003385409,0.2358087,0.0233124
0.07002576,-0.04627228,0.1721779,-0.05443091,0.03211834,0.2256182,-0.01509678,0.01760044,0.0002151763,0.234303,0.02318911
0.06893788,-0.04561094,0.1766976,-0.05510075,0.03247763,0.2237861,-0.01497435,0.01754653,9.287419E-05,0.2327469,0.02306774
0.06783618,-0.04494241,0.1811791,-0.05577157,0.03283639,0.2218951,-0.0148531,0.01749317,-2.808394E-05,0.231141,0.02294834
0.06672067,-0.04426688,0.1856213,-0.05644292,0.0331946,0.2199458,-0.01473264,0.01744033,-0.0001480379,0.2294861,0.02283063
0.06559134,-0.04358432,0.1900229,-0.05711436,0.03355227,0.2179387,-0.01461373,0.01738806,-0.0002667833,0.227783,0.02271513
0.06444844,-0.04289534,0.1943829,-0.0577854,0.03387733,0.2158744,-0.01449212,0.0173788,-0.000322573,0.2260279,0.02263069
0.06329195,-0.04219989,0.1987001,-0.05845588,0.03420179,0.2137533,-0.01437212,0.01736956,-0.0003779021,0.2242261,0.02254777
0.06212192,-0.04149811,0.2029734,-0.05912559,0.03452565,0.2115757,-0.01425297,0.0173604,-0.0004325121,0.2223784,0.02246593
0.06093836,-0.04078988,0.2072016,-0.05979433,0.03484893,0.2093422,-0.01413522,0.01735138,-0.0004864367,0.2204857,0.02238552
0.0597413,-0.04007536,0.2113837,-0.06046191,0.03517161,0.2070531,-0.01401844,0.01734238,-0.0005400776,0.218549,0.0223062
0.05853085,-0.0393551,0.2155186,-0.06112814,0.03546339,0.2047093,-0.01389756,0.0173256,-0.0005577586,0.2165646,0.02221778
0.05730706,-0.03862901,0.2196051,-0.06179297,0.03575452,0.202311,-0.01377794,0.01730896,-0.0005751147,0.2145378,0.02213058
0.05606994,-0.03789724,0.2236422,-0.06245634,0.03604501,0.1998585,-0.01365935,0.01729249,-0.0005923357,0.2124699,0.02204447
0.05481954,-0.0371598,0.2276289,-0.06311821,0.03633489,0.1973525,-0.0135425,0.01727629,-0.0006093236,0.2103619,0.02195998
0.05355588,-0.03641663,0.2315639,-0.06377853,0.03662406,0.1947932,-0.0134267,0.01726007,-0.0006263009,0.2082148,0.02187644
0.0522789,-0.0356685,0.2354464,-0.06443726,0.03687865,0.1921817,-0.01328482,0.01720329,-0.0006666187,0.2060242,0.0217459
0.05098862,-0.03491536,0.2392751,-0.06509423,0.03713256,0.189518,-0.0131441,0.01714716,-0.0007066059,0.2037968,0.02161694
0.04968509,-0.03415728,0.2430491,-0.06574932,0.03738579,0.1868027,-0.01300474,0.01709152,-0.0007462015,0.2015339,0.02148953
0.04836834,-0.03339422,0.2467673,-0.06640239,0.03763831,0.1840364,-0.01286675,0.01703647,-0.0007851569,0.1992368,0.02136378
0.04703843,-0.03262625,0.2504288,-0.0670533,0.03789014,0.1812195,-0.01273027,0.01698204,-0.0008240413,0.1969069,0.02123979
0.0456952,-0.03185406,0.2540324,-0.06770189,0.03811046,0.1783531,-0.01255026,0.0169029,-0.0009238161,0.1945399,0.02107298
0.0443387,-0.03107753,0.2575772,-0.0683478,0.03833011,0.1754374,-0.01237207,0.01682458,-0.001022754,0.1921429,0.02090887
0.04296899,-0.0302968,0.2610621,-0.06899066,0.03854902,0.1724732,-0.01219539,0.01674705,-0.001120575,0.1897175,0.02074722
0.04158615,-0.02951188,0.2644863,-0.06963009,0.03876725,0.1694611,-0.01202087,0.01667022,-0.001217666,0.1872654,0.02058835
0.04019026,-0.02872272,0.2678488,-0.07026573,0.03898475,0.1664018,-0.01184806,0.01659407,-0.00131373,0.1847881,0.02043198
0.03878129,-0.02792976,0.2711485,-0.07089719,0.03918523,0.1632963,-0.01163422,0.01653312,-0.001449395,0.1822843,0.0202682
0.03735934,-0.02713299,0.2743846,-0.07152397,0.03938502,0.160145,-0.01142229,0.01647278,-0.001583728,0.179759,0.02010794
0.03592452,-0.02633238,0.2775561,-0.07214554,0.0395841,0.156949,-0.01121264,0.01641311,-0.001716696,0.1772142,0.01995146
0.03447694,-0.02552792,0.2806621,-0.07276141,0.03978249,0.1537089,-0.0110049,0.01635393,-0.001848587,0.1746519,0.01979839
0.03301674,-0.02471974,0.2837019,-0.07337105,0.03998017,0.1504256,-0.01079937,0.01629531,-0.00197916,0.1720744,0.01964893
0.03154413,-0.02390772,0.2866744,-0.07397397,0.04018074,0.1470999,-0.01056861,0.01627699,-0.002096055,0.1694846,0.01951998
0.03005924,-0.02309193,0.289579,-0.07456972,0.04038063,0.1437327,-0.01034036,0.01625887,-0.002211923,0.1668841,0.01939501
0.02856224,-0.02227238,0.2924147,-0.07515785,0.04057981,0.1403248,-0.01011416,0.01624084,-0.002326584,0.1642756,0.01927367
0.02705329,-0.02144895,0.2951807,-0.07573794,0.04077834,0.1368773,-0.009890451,0.01622296,-0.002440079,0.1616617,0.01915619
