x,y,z,vx,vy,vz,ax,ay,az,v_mag,a_mag
0,0,0,0,0,0,0,0,0,0,0
8.881784E-16,-0.003924042,7.450581E-09,0,-0.1962,0,0,0,0,0.1962,0
1.885333E-06,-0.007871911,-2.560392E-05,0,-0.1970704,0,0.00842688,-0.01077465,0.00333506,0.1970704,0.01407935
2.141474E-05,-0.01184326,-7.875636E-05,0.0007879743,-0.1979284,-0.0001085181,0.01676891,-0.02144152,0.006636895,0.19793,0.02801755
5.808537E-05,-0.01583815,-0.0001578704,0.001549993,-0.1987864,-0.0001515362,0.02502777,-0.03200168,0.009905728,0.1987925,0.04181651
0.0001111547,-0.0198563,-0.0002607629,0.002273219,-0.1996445,-9.681757E-05,0.03320431,-0.04245624,0.01314199,0.1996575,0.05547765
0.0001847155,-0.02387266,-0.0003379583,0.002944436,-0.1998267,8.865632E-05,0.02597869,-0.04001639,0.01482888,0.1998484,0.04996098
0.0002774885,-0.02788708,-0.0003876612,0.00355722,-0.2000091,0.0003758423,0.01882308,-0.03760386,0.01649453,0.2000411,0.04517109
0.0003880668,-0.03189979,-0.0004085749,0.004104993,-0.2001917,0.0007366509,0.01173704,-0.03521843,0.01813936,0.2002352,0.04131745
0.0005149171,-0.03591076,-0.0004000142,0.004581289,-0.2003746,0.001143265,0.004719674,-0.03285976,0.01976327,0.2004302,0.03863452
0.0006563824,-0.03992019,-0.0003617816,0.004979745,-0.2005576,0.001568143,-0.002229285,-0.03052755,0.0213665,0.2006256,0.03732866
0.0007840726,-0.04392976,-0.0003149286,0.005293667,-0.2005671,0.001984505,-0.002320731,-0.02683113,0.01385478,0.2006468,0.03028614
0.0008970948,-0.04793938,-0.0002597012,0.005552933,-0.2005767,0.002391484,-0.002408586,-0.02317208,0.00641781,0.2006678,0.02416474
0.0009951403,-0.05194925,-0.0001962781,0.005786766,-0.2005863,0.002788757,-0.002492369,-0.01954984,-0.0009448618,0.2006892,0.01973072
0.001078476,-0.05595925,-0.0001248792,0.006024098,-0.2005959,0.00317603,-0.00257238,-0.01596429,-0.008234008,0.2007115,0.01814592
0.00114794,-0.05996939,-4.573539E-05,0.006293569,-0.2006054,0.003553035,-0.002648621,-0.01241489,-0.01545063,0.2007355,0.01999667
0.001215848,-0.06396282,2.770871E-05,0.006621119,-0.1996088,0.003922128,0.001647755,-0.01766224,-0.01680798,0.1997571,0.02443723
0.00128361,-0.06793951,9.569898E-05,0.007014773,-0.198612,0.004297563,0.005899989,-0.02285833,-0.01815032,0.1987823,0.0297783
0.001352746,-0.07189944,0.0001588129,0.007479765,-0.1976152,0.004696095,0.01010872,-0.02800404,-0.01947789,0.1978124,0.03557809
0.001424877,-0.07584255,0.000217963,0.008021257,-0.1966183,0.005134326,0.01427394,-0.03309962,-0.02079106,0.1968488,0.04161247
0.001501735,-0.07976877,0.0002743565,0.008644341,-0.1956216,0.005628704,0.01839636,-0.03814564,-0.02208958,0.1958933,0.04776469
0.001594114,-0.08366276,0.0003446564,0.009353758,-0.1940464,0.006197609,0.01754436,-0.03588538,-0.02222367,0.1943706,0.04571057
0.001703745,-0.08752456,0.0004302375,0.01015054,-0.1924715,0.00683587,0.01670225,-0.03364717,-0.02235624,0.1928602,0.04371382
0.001832365,-0.09135423,0.0005324036,0.0110352,-0.1908969,0.00754022,0.01586953,-0.03143107,-0.02248744,0.1913642,0.04177845
0.001981727,-0.09515162,0.0006523691,0.01200825,-0.1893226,0.008307419,0.01504623,-0.02923661,-0.02261698,0.1898849,0.03990859
0.002153589,-0.09891696,0.0007913373,0.01307021,-0.1877487,0.009134255,0.01423237,-0.02706382,-0.02274535,0.1884246,0.03810987
0.002357554,-0.1026383,0.0009660497,0.01422231,-0.1857743,0.01001963,0.008283582,-0.02839451,-0.01944547,0.1865871,0.03539763
0.002595045,-0.1063158,0.001176991,0.01545087,-0.1838002,0.01093805,0.002392093,-0.02971013,-0.0161821,0.1847725,0.03391569
0.002867223,-0.1099496,0.00142419,0.01674294,-0.1818263,0.01186623,-0.003442846,-0.03101085,-0.01295503,0.1829807,0.033784
0.003174995,-0.1135395,0.001707211,0.01808569,-0.1798525,0.01278108,-0.009221657,-0.03229694,-0.009763736,0.1812108,0.03497802
0.00351901,-0.1170857,0.002025168,0.01946647,-0.1778785,0.01365975,-0.01494516,-0.0335685,-0.006607811,0.1794612,0.03733451
0.003900236,-0.1205839,0.002366122,0.02087383,-0.1755588,0.01448126,-0.01709431,-0.03043088,-0.004394256,0.1773875,0.03517902
0.004318916,-0.1240342,0.002728701,0.02229806,-0.1732388,0.01523528,-0.01922278,-0.02732377,-0.002205266,0.1753311,0.03348084
0.00477512,-0.1274364,0.003111288,0.02373059,-0.1709186,0.01591332,-0.02133106,-0.02424667,-4.048612E-05,0.1732903,0.03229422
0.005268753,-0.1307908,0.003512178,0.02516289,-0.168598,0.01650698,-0.02341927,-0.02119958,0.002100657,0.1712627,0.03165908
0.005799551,-0.1340971,0.003929429,0.02658657,-0.166277,0.01700793,-0.02548773,-0.01818195,0.004217741,0.1692458,0.03159109
0.006366451,-0.1373497,0.004344981,0.02799477,-0.1634681,0.01740924,-0.02229484,-0.01831982,0.006870849,0.1667592,0.02966284
0.006968827,-0.1405486,0.004757177,0.02937545,-0.160659,0.01772204,-0.01913504,-0.01845472,0.009498461,0.1642812,0.02823025
0.007605851,-0.1436937,0.005164597,0.03071816,-0.1578496,0.01795888,-0.01600766,-0.01858672,0.01210127,0.1618104,0.02735237
0.008276483,-0.146785,0.00556609,0.03201259,-0.1550399,0.01813221,-0.01291226,-0.01871578,0.01467897,0.1593454,0.02706435
0.008979485,-0.1498225,0.005960707,0.03324848,-0.1522301,0.01825433,-0.00984933,-0.01884185,0.01723211,0.1568843,0.02736732
0.009712845,-0.152794,0.006354313,0.03441666,-0.1488986,0.01833798,-0.008957523,-0.0180326,0.01933373,0.1539207,0.02791424
0.01047495,-0.1556996,0.006746229,0.03550762,-0.1455669,0.01838601,-0.00807584,-0.01723062,0.02141459,0.1509588,0.02864783
0.01126403,-0.1585393,0.007135859,0.03651307,-0.1422351,0.0184019,-0.007204037,-0.01643601,0.02347498,0.1479955,0.02954852
0.01207813,-0.1613129,0.007522639,0.03742479,-0.1389032,0.0183891,-0.006342091,-0.01564864,0.02551494,0.1450271,0.03059598
0.01291516,-0.1640207,0.007906113,0.03823467,-0.1355712,0.01835101,-0.005489444,-0.01486845,0.02753451,0.14205,0.03177033
0.01376583,-0.1666582,0.008275017,0.03893447,-0.1318962,0.01829114,-0.001072052,-0.01144489,0.02655806,0.1387338,0.028939
0.01462803,-0.1692255,0.008629415,0.03952809,-0.1282212,0.01822695,0.003299737,-0.008053345,0.02559238,0.1354081,0.02703173
0.01549973,-0.1717225,0.008969687,0.0400194,-0.1245463,0.0181759,0.00762634,-0.004693331,0.02463754,0.1320746,0.02621444
0.01637897,-0.1741492,0.009296572,0.04041221,-0.1208717,0.01815531,0.01190833,-0.001364651,0.02369281,0.1287351,0.02655222
0.01726384,-0.1765058,0.009611152,0.04071032,-0.1171973,0.01818231,0.01614587,0.001932933,0.02275875,0.1253919,0.02797116
0.01813892,-0.1787833,0.00994231,0.04091723,-0.1134434,0.01827396,0.01129031,0.002145824,0.0181197,0.1219736,0.02145691
0.01900288,-0.1809822,0.01029083,0.04105168,-0.1096898,0.01841079,0.006482997,0.002355868,0.01352706,0.1185582,0.01518422
0.01985478,-0.1831023,0.01065708,0.04113206,-0.1059365,0.01857357,0.0017233,0.002563132,0.008980622,0.1151493,0.009496893
0.02069404,-0.1851437,0.01104105,0.04117655,-0.1021833,0.01874329,-0.002988635,0.002767681,0.004479785,0.1117508,0.006054789
0.02152044,-0.1871064,0.01144235,0.04120313,-0.0984301,0.01890109,-0.007654003,0.002969543,2.439775E-05,0.1083671,0.008209906
0.02232569,-0.1889879,0.01183605,0.04122796,-0.09424177,0.01902892,-0.004315161,0.0002630668,-0.006416132,0.1046105,0.007736702
0.02311052,-0.1907882,0.01222191,0.04127849,-0.09005332,0.01913946,-0.001010141,-0.002417251,-0.01279195,0.1008952,0.01305746
0.02387617,-0.1925071,0.01259991,0.04138028,-0.08586468,0.01924591,0.002260952,-0.005071862,-0.01910358,0.09723927,0.01989428
0.02462439,-0.1941446,0.01297035,0.04155859,-0.0816758,0.01936136,0.005499222,-0.007700719,-0.02535217,0.09366384,0.02706059
0.02535741,-0.1957005,0.01333373,0.04183847,-0.07748665,0.01949876,0.0087047,-0.01030431,-0.03153811,0.09019335,0.03430165
0.02611354,-0.1971636,0.01369013,0.04224351,-0.07270543,0.01967187,0.01214854,-0.008479082,-0.02706252,0.08635727,0.03085226
0.02689479,-0.1985335,0.01404059,0.04275727,-0.06792414,0.01989376,0.01555813,-0.006675054,-0.02263044,0.08268999,0.02826214
0.02770283,-0.1998105,0.01438649,0.04336194,-0.06314285,0.02017815,0.01893401,-0.004891975,-0.0182417,0.07921133,0.02674299
0.02853899,-0.2009944,0.01472945,0.04403988,-0.05836168,0.02053863,0.02227634,-0.003129522,-0.01389602,0.07594361,0.02644104
0.02940423,-0.2020852,0.01507138,0.04477363,-0.05358073,0.02098864,0.0255854,-0.001387525,-0.009592722,0.07291157,0.0273598
0.03030294,-0.2030722,0.01545261,0.04554592,-0.04873838,0.0215417,0.01628853,-0.001729703,-0.00358405,0.07009926,0.01676764
0.03123523,-0.2039554,0.01587423,0.0463326,-0.04389626,0.02216025,0.007084661,-0.002069743,0.002364001,0.06756233,0.007750146
0.03220071,-0.2047352,0.01633651,0.04710973,-0.03905426,0.02280728,-0.002027498,-0.002407553,0.008252019,0.06530493,0.008831924
0.03319855,-0.2054113,0.01683899,0.04785366,-0.03421225,0.02344616,-0.01104903,-0.002743194,0.01408094,0.06332593,0.01810743
0.03422744,-0.205984,0.01738055,0.04854092,-0.02937007,0.02404061,-0.01998032,-0.003076649,0.01985087,0.06161796,0.02833259
0.03526548,-0.2064672,0.01793867,0.04914877,-0.02498196,0.02455324,-0.02205955,-0.002257603,0.0186625,0.06035364,0.02898292
0.0363112,-0.206861,0.01851156,0.04968173,-0.02059366,0.02497736,-0.02411799,-0.001447994,0.01748577,0.0592979,0.02982492
0.03736323,-0.2071655,0.0190972,0.05014452,-0.01620525,0.02530473,-0.02615616,-0.0006476899,0.01632001,0.05845864,0.03083678
0.03842029,-0.2073806,0.01969341,0.05054185,-0.01181673,0.02552716,-0.02817423,0.000143101,0.01516571,0.05784245,0.03199698
0.0394812,-0.2075063,0.0202979,0.05087833,-0.007428154,0.02563657,-0.03017251,0.0009248887,0.01402265,0.05745447,0.03328469
0.04055102,-0.2075486,0.02089127,0.05115881,-0.003130451,0.0256249,-0.02660761,0.0008701702,0.015125,0.05730322,0.03061842
0.04162851,-0.2075078,0.02147157,0.05137864,0.001167119,0.02550655,-0.02307786,0.000817585,0.0162162,0.05737343,0.02821739
0.04271233,-0.2073836,0.022037,0.05153344,0.005464479,0.02529567,-0.01958366,0.0007672251,0.01729659,0.05766652,0.02613964
0.04380108,-0.2071761,0.02258613,0.05161889,0.009761572,0.02500628,-0.01612423,0.0007191437,0.01836588,0.05818172,0.02445022
0.04489323,-0.2068852,0.02311777,0.0516307,0.01405832,0.02465226,-0.01269936,0.0006730161,0.01942451,0.05891604,0.02321719
0.04598276,-0.2065107,0.0236217,0.05156402,0.01849364,0.02424713,-0.006248721,-0.0002699964,0.0192359,0.05990648,0.02022719
0.04706812,-0.2060523,0.02409762,0.05142015,0.02292857,0.02381693,0.0001377344,-0.001201162,0.01904913,0.06113098,0.01908746
0.0481478,-0.20551,0.02454572,0.05119986,0.02736312,0.02338726,0.006460483,-0.002120674,0.01886453,0.06258698,0.02005257
0.04922032,-0.2048839,0.02496673,0.05090388,0.0317973,0.02298347,0.01272084,-0.00302865,0.01868183,0.06426907,0.02280358
0.05028419,-0.2041739,0.02536186,0.05053296,0.03623113,0.02263065,0.0189188,-0.003925053,0.01850132,0.06616964,0.02675119
0.05134063,-0.20337,0.02576238,0.0500871,0.04078087,0.02235356,0.01531649,-0.00460161,0.01915986,0.06834822,0.02495736
0.05238809,-0.2024723,0.02616942,0.04956433,0.04533011,0.02213785,0.01175028,-0.005272837,0.01981125,0.07072146,0.02362959
0.05342496,-0.201481,0.02658384,0.04896202,0.04987882,0.02196917,0.008220158,-0.005938899,0.02045581,0.07326541,0.02283159
0.05444957,-0.200396,0.02700618,0.04827759,0.05442695,0.02183332,0.00472547,-0.006600114,0.02109336,0.07595863,0.02260136
0.05546022,-0.1992173,0.02743669,0.04750848,0.05897446,0.02171624,0.001265719,-0.007256076,0.02172398,0.07878222,0.0229387
0.05644494,-0.1979575,0.02787315,0.04665702,0.06293069,0.02160393,-0.001433078,-0.004260994,0.01803989,0.08126425,0.0185916
0.05740236,-0.1966165,0.02831535,0.04573335,0.06688632,0.02148573,-0.004105377,-0.001296732,0.01439198,0.08382694,0.01502214
0.05833142,-0.1951945,0.02876289,0.04475207,0.07084145,0.02135105,-0.006752254,0.001636869,0.0107803,0.08647037,0.01282526
0.05923135,-0.1936912,0.02921512,0.04372763,0.07479618,0.02118941,-0.009373296,0.004540038,0.007204512,0.08919398,0.01266395
0.06010167,-0.192107,0.02967123,0.04267436,0.07875063,0.02099041,-0.01196849,0.007413307,0.003664435,0.09199652,0.01454751
0.06092107,-0.190447,0.0301085,0.04160625,0.08272083,0.02074377,-0.007378265,0.004031482,-0.005203594,0.09489004,0.009887822
0.06169028,-0.1887111,0.03052647,0.04055897,0.08669122,0.02046775,-0.002835027,0.0006818898,-0.0139826,0.09787403,0.01428339
0.0624107,-0.1868993,0.03092504,0.03956766,0.09066211,0.0201804,0.00166147,-0.002635944,-0.02267382,0.1009577,0.02288692
0.06308444,-0.1850115,0.03130449,0.03866712,0.0946338,0.01989962,0.00611187,-0.005922374,-0.03127788,0.1041475,0.03241505
0.06371427,-0.1830476,0.03166543,0.03789182,0.09860654,0.0196431,0.01051691,-0.009177791,-0.03979579,0.1074472,0.04217277
0.06435741,-0.1810034,0.03201409,0.03727487,0.1027175,0.01942836,0.01313302,-0.01151105,-0.03077562,0.1109854,0.0353853
0.06501604,-0.1788788,0.03235162,0.03678121,0.1068294,0.01926593,0.0157195,-0.01382475,-0.02184586,0.1146148,0.0302567
0.06569169,-0.1766739,0.03267936,0.03637507,0.1109417,0.01916612,0.018277,-0.01611932,-0.0130053,0.1183155,0.0276228
0.06638513,-0.1743887,0.03299885,0.03602101,0.1150544,0.01913914,0.02080552,-0.01839472,-0.004253076,0.122071,0.02809491
0.06709648,-0.1720232,0.03331183,0.03568392,0.1191671,0.01919509,0.02330495,-0.02065111,0.004411405,0.1258673,0.03144915
0.06782857,-0.1695837,0.03365084,0.03533313,0.1225739,0.01934291,0.01571694,-0.01603736,0.01237724,0.129023,0.02564011
0.06858013,-0.1670704,0.03401695,0.03493283,0.1259803,0.01955309,0.008201363,-0.01147421,0.0202626,0.132188,0.0246879
0.06934923,-0.1644832,0.03441056,0.03445156,0.1293862,0.01979572,0.0007572841,-0.006960919,0.02806821,0.1353498,0.0289284
0.07013335,-0.1618223,0.03483151,0.03385819,0.1327913,0.02004119,-0.006616154,-0.002496992,0.03579485,0.1384975,0.03648671
0.07092936,-0.1590876,0.03527902,0.03312192,0.1361954,0.02026018,-0.0139194,0.001918067,0.04344325,0.1416218,0.04565901
0.07169604,-0.1562967,0.03574546,0.03221903,0.1388057,0.02042245,-0.01907509,0.001990052,0.0397261,0.143952,0.04411329
0.07243037,-0.1534497,0.03622915,0.03115821,0.1414147,0.02050895,-0.02417934,0.002055992,0.03604613,0.1462518,0.04345332
0.07312957,-0.1505465,0.03672798,0.02995408,0.1440224,0.0204994,-0.02923317,0.002115835,0.03240318,0.1485258,0.04369234
0.07379118,-0.1475873,0.03723948,0.02862112,0.1466288,0.02037371,-0.03423664,0.002169755,0.02879687,0.1507789,0.04478967
0.07441302,-0.1445722,0.03776078,0.02717366,0.149234,0.02011199,-0.03918999,0.002217735,0.02522703,0.1530153,0.04666023
0.07498294,-0.1415213,0.03824728,0.02563161,0.1513543,0.01969523,-0.03047518,0.0002456867,0.01879084,0.1547676,0.03580353
0.07549965,-0.1384347,0.03869683,0.02401503,0.1534735,0.01915761,-0.02184689,-0.001707207,0.01242019,0.1565179,0.02518854
0.07596239,-0.1353125,0.03910796,0.0223492,0.1555919,0.01853326,-0.01330387,-0.003641252,0.00611441,0.1582777,0.01508767
0.07637089,-0.1321545,0.0394799,0.02065916,0.15771,0.01785597,-0.004845771,-0.005556562,-0.000127258,0.1600565,0.00737381
0.07672536,-0.1289608,0.0398125,0.01896969,0.1598279,0.01715918,0.003528453,-0.007453435,-0.006305151,0.1618618,0.01038068
0.07704865,-0.1257285,0.04010997,0.01730427,0.1620296,0.01647579,0.01060088,-0.009390404,-0.005112413,0.1637818,0.01505639
0.07734115,-0.1224576,0.04037336,0.01565923,0.1642316,0.015834,0.01760207,-0.01130902,-0.003930503,0.1657346,0.02128792
0.07760317,-0.1191478,0.04060426,0.01402989,0.166434,0.0152615,0.02453272,-0.01320936,-0.002759701,0.1677201,0.02799924
0.07783492,-0.1157993,0.04080481,0.01241161,0.1686367,0.0147857,0.03139372,-0.01509172,-0.001599703,0.1697381,0.03486954
0.07803652,-0.1124118,0.04097769,0.01079975,0.1708397,0.01443374,0.03818547,-0.0169562,-0.0004506197,0.1717881,0.04178332
0.07821881,-0.108979,0.04116942,0.009192555,0.1728099,0.01423255,0.03066429,-0.01964968,0.004437561,0.1736385,0.03668924
0.0783813,-0.105501,0.04138222,0.007567775,0.1747799,0.01415193,0.02321663,-0.02232003,0.009271954,0.1755152,0.03351365
0.0785231,-0.1019779,0.04161768,0.005906201,0.1767495,0.01416223,0.01584152,-0.02496716,0.01405348,0.1774143,0.03273856
0.07864296,-0.09840974,0.04187683,0.004188839,0.1787182,0.01423407,0.008538845,-0.02759148,0.01878273,0.1793331,0.03445276
0.07873922,-0.09479664,0.04216013,0.002396914,0.180686,0.01433835,0.001307583,-0.03019307,0.02346063,0.1812699,0.03825876
0.07877899,-0.09116133,0.04246572,0.0005268333,0.181548,0.01444482,-0.005320472,-0.02919172,0.0169318,0.1821225,0.03416358
0.07876109,-0.08750391,0.04279292,-0.001410113,0.1824092,0.01452875,-0.01187879,-0.02820326,0.01046465,0.1829923,0.03234252
0.07868487,-0.08382442,0.04314054,-0.003388413,0.1832698,0.0145643,-0.01836818,-0.02722767,0.00405806,0.1838788,0.03309386
0.07855017,-0.08012289,0.04350687,-0.005382783,0.1841302,0.01452596,-0.02478913,-0.02626473,-0.002288316,0.1847807,0.03618803
0.07835734,-0.07639933,0.04388973,-0.007368162,0.1849908,0.01438845,-0.03114257,-0.02531423,-0.00857507,0.1856958,0.04103902
0.07811846,-0.07267556,0.04424226,-0.009312266,0.1853184,0.01412714,-0.02288368,-0.02792775,-0.0102617,0.1860892,0.03753564
0.07783441,-0.0689515,0.04456289,-0.01121594,0.1856464,0.01377436,-0.01470689,-0.03051756,-0.01192562,0.1864942,0.03591426
0.07750626,-0.0652271,0.04485067,-0.01307261,0.185975,0.01336215,-0.006611669,-0.03308388,-0.0135671,0.1869121,0.03636377
0.07713515,-0.06150228,0.04510529,-0.01487575,0.1863042,0.0129222,0.001403165,-0.03562707,-0.01518655,0.1873434,0.0387542
0.07672241,-0.05777694,0.04532703,-0.016619,0.1866343,0.01248594,0.009338028,-0.03814706,-0.0167843,0.1877883,0.04270959
0.07628977,-0.05404574,0.0455365,-0.01829621,0.1869761,0.01208445,0.01071056,-0.0357872,-0.01289253,0.1882574,0.03951781
0.07583814,-0.05030872,0.04573455,-0.01992257,0.1873186,0.01172331,0.01206723,-0.03345208,-0.009038299,0.1887395,0.03669265
0.0753681,-0.04656589,0.04592219,-0.02151327,0.1876615,0.01140798,0.01340842,-0.03114156,-0.005221087,0.1892348,0.03430513
0.07487991,-0.04281703,0.04610046,-0.02308336,0.1880048,0.01114387,0.01473378,-0.02885516,-0.001440534,0.1897441,0.03243115
0.0743736,-0.03906241,0.04627059,-0.02464773,0.1883481,0.01093632,0.01604382,-0.02659283,0.002303452,0.1902686,0.03114304
0.0738489,-0.03531256,0.04644806,-0.02621246,0.1879735,0.01079058,0.01266981,-0.02977142,0.007349106,0.1900989,0.03317937
0.07330513,-0.03156766,0.04663376,-0.02780598,0.1875986,0.01069304,0.009327088,-0.03292,0.01234166,0.1899493,0.03637358
0.07274117,-0.02782771,0.04682831,-0.02944788,0.1872231,0.01063043,0.006015115,-0.03603875,0.01728129,0.1898227,0.04041802
0.07215553,-0.0240927,0.04703206,-0.03115752,0.1868467,0.0105896,0.002734018,-0.03912802,0.02216909,0.1897224,0.04505492
0.07154633,-0.02036269,0.04724511,-0.03295407,0.1864691,0.01055747,-0.0005169529,-0.04218809,0.02700508,0.1896527,0.05009368
0.07088416,-0.01665379,0.04747248,-0.03484456,0.1852287,0.01052063,-0.00547022,-0.03702917,0.02072413,0.188771,0.04278519
0.07016753,-0.01296593,0.04771349,-0.03681593,0.1839872,0.01046043,-0.01037168,-0.03192445,0.01450209,0.1879259,0.03656573
0.06939542,-0.009299308,0.04796718,-0.03884388,0.1827449,0.010358,-0.01522128,-0.02687349,0.008338066,0.1871145,0.03199054
0.06856736,-0.005653962,0.04823214,-0.04090434,0.1815021,0.0101947,-0.02001989,-0.02187579,0.002231444,0.1863333,0.02973761
0.06768329,-0.002029791,0.04850661,-0.04297347,0.1802592,0.009952096,-0.02476826,-0.01693053,-0.003818117,0.1855778,0.0302438
0.0667464,0.001549691,0.04875574,-0.04501657,0.1782583,0.009612725,-0.0186534,-0.02404929,-0.005945475,0.1841057,0.03101074
0.06575727,0.0050845,0.04897825,-0.04703646,0.1762577,0.009199547,-0.01259957,-0.03109837,-0.008045754,0.1826577,0.03450495
0.06471669,0.008574679,0.04917329,-0.04902492,0.1742575,0.00873569,-0.006606187,-0.03807851,-0.01011973,0.1812331,0.03995026
0.06362557,0.01202025,0.04934045,-0.05097382,0.1722579,0.008244068,-0.0006725864,-0.04499024,-0.0121678,0.1798307,0.04661147
0.062485,0.01542145,0.04947977,-0.05287515,0.1702588,0.007747382,0.005201692,-0.05183425,-0.0141901,0.1784485,0.05399265
0.06132118,0.01878396,0.04960257,-0.05472311,0.1684154,0.007267857,0.007462249,-0.05096216,-0.009909105,0.177232,0.05245014
0.06013475,0.02210793,0.04970944,-0.05653223,0.1665726,0.006814656,0.00969599,-0.05009996,-0.005668923,0.1760362,0.0513435
0.05892603,0.02539337,0.04980119,-0.05831902,0.1647301,0.006396536,0.01190327,-0.04924744,-0.001468732,0.1748657,0.05068684
0.05769502,0.0286403,0.04987879,-0.06009986,0.1628877,0.006022138,0.0140844,-0.0484045,0.002692002,0.1737258,0.05048379
0.0564414,0.03184874,0.04994337,-0.06189095,0.1610453,0.00569998,0.01623953,-0.04757101,0.006813149,0.1726226,0.05072615
0.05515406,0.03501087,0.05001641,-0.06369969,0.1585571,0.005438864,0.01173359,-0.04714365,0.0074956,0.1709607,0.04915673
0.05383235,0.03812668,0.05009863,-0.06553736,0.1560685,0.005220728,0.00727206,-0.04672134,0.008167012,0.1693511,0.04798403
0.0524756,0.04119605,0.05019043,-0.06740662,0.1535795,0.005028283,0.002854636,-0.04630413,0.008827651,0.1677963,0.04722445
0.05108308,0.044219,0.05029184,-0.06931004,0.1510901,0.004844408,-0.001519585,-0.04589185,0.009477805,0.1662996,0.04688497
0.049654,0.04719546,0.05040256,-0.07125013,0.1486002,0.004652148,-0.005850827,-0.0454846,0.01011747,0.1648643,0.04696215
0.04816758,0.05011319,0.05051094,-0.07322257,0.1456373,0.004434896,-0.006512876,-0.04489561,0.004088891,0.1630688,0.04554945
0.04662368,0.05297218,0.05061638,-0.07521074,0.1426743,0.004189978,-0.007163136,-0.04431326,-0.001880221,0.1613387,0.04492784
0.04502263,0.05577238,0.05071821,-0.07719153,0.1397113,0.003914908,-0.007801543,-0.04373777,-0.007790186,0.1596656,0.04510591
0.04336519,0.05851395,0.05081572,-0.07914209,0.1367487,0.003607269,-0.008428415,-0.04316873,-0.01364188,0.1580402,0.04605083
0.0416526,0.06119673,0.05090821,-0.08103978,0.1337869,0.003264707,-0.009043616,-0.04260612,-0.01943562,0.1564514,0.04769498
0.03989965,0.06381361,0.0509788,-0.08286002,0.1306678,0.002885123,-0.004369705,-0.04432343,-0.02030018,0.154752,0.04894648
0.03810797,0.06636468,0.05102723,-0.08460165,0.1275498,0.002486376,0.0002573263,-0.0460255,-0.02115176,0.153077,0.05065383
0.03627925,0.06884991,0.05105363,-0.08626137,0.1244328,0.002086322,0.004838355,-0.04771252,-0.02199072,0.1514229,0.05275875
0.03441526,0.07126936,0.05105846,-0.08783594,0.121317,0.001702643,0.009373507,-0.04938459,-0.0228168,0.1497861,0.05520242
0.03251784,0.07362317,0.0510425,-0.08932217,0.1182022,0.001352855,0.01386332,-0.05104187,-0.02363043,0.1481622,0.0579298
0.03060244,0.07591134,0.05102751,-0.09071406,0.1148321,0.001054521,0.01153507,-0.05312628,-0.01987169,0.146344,0.05788215
0.02867049,0.07813394,0.05101424,-0.09202917,0.1114628,0.0007983825,0.009225574,-0.0551897,-0.01615325,0.1445474,0.05824037
0.02672314,0.08029079,0.05100336,-0.09328187,0.1080943,0.0005755208,0.006934714,-0.05723248,-0.01247486,0.1427803,0.05898533
0.02476123,0.08238195,0.05099528,-0.09448639,0.1047262,0.0003770795,0.004661972,-0.05925457,-0.008836122,0.1410511,0.06009089
0.02278533,0.08440739,0.05099025,-0.09565678,0.1013585,0.0001942609,0.002407136,-0.06125663,-0.005236654,0.1393693,0.06152716
0.02078941,0.08635928,0.05099164,-0.09680251,0.09755428,1.840205E-05,-0.0008515489,-0.05791648,-0.005130632,0.137432,0.05814953
0.01877379,0.08823754,0.05099923,-0.09792845,0.09375019,-0.0001629751,-0.00407738,-0.05460929,-0.005029644,0.1355696,0.05499179
0.01673882,0.09004217,0.05101257,-0.09903499,0.08994631,-0.0003621341,-0.007270651,-0.05133487,-0.004933398,0.1337849,0.05208137
0.01468484,0.09177318,0.05103099,-0.1001225,0.08614261,-0.0005912166,-0.01043165,-0.04809296,-0.004841738,0.1320811,0.04944891
0.01261218,0.0934305,0.05105355,-0.1011912,0.08233906,-0.0008622447,-0.01356087,-0.04488314,-0.004754736,0.1304612,0.04712749
0.01052027,0.09500583,0.05106878,-0.1022388,0.07824828,-0.001186848,-0.01330364,-0.04495328,-0.004162702,0.1287516,0.04706498
0.008409436,0.09649912,0.05107565,-0.1032701,0.07415758,-0.001564217,-0.01304943,-0.04502253,-0.003576159,0.1271476,0.04701175
0.006279931,0.0979104,0.05107313,-0.1042875,0.07006694,-0.001993365,-0.01279857,-0.04509101,-0.002995152,0.1256552,0.0469678
0.004131977,0.09923966,0.05106022,-0.1052931,0.06597634,-0.002473317,-0.01255044,-0.0451587,-0.002419974,0.1242805,0.0469327
0.001965751,0.1004869,0.05103592,-0.1062891,0.06188573,-0.003003116,-0.01230522,-0.04522549,-0.0018505,0.1230294,0.04690615
-0.0002184263,0.101652,0.05099076,-0.1072785,0.05789371,-0.003582038,-0.009268682,-0.04578233,-0.001095598,0.1219557,0.04672398
-0.002420466,0.1027349,0.05092408,-0.1082633,0.05390163,-0.004198224,-0.006263007,-0.04633341,-0.0003454086,0.1210122,0.04675606
-0.004640333,0.1037355,0.05083549,-0.1092463,0.0499095,-0.004840141,-0.003288011,-0.04687909,0.0003999841,0.1202045,0.04699596
-0.00687805,0.1046541,0.05072476,-0.1102303,0.04591732,-0.005496369,-0.0003439846,-0.04741917,0.001140903,0.119538,0.04743414
-0.009133697,0.1054906,0.05059193,-0.1112183,0.04192509,-0.006155613,0.002570036,-0.04795377,0.001877198,0.1190173,0.04805927
-0.0114124,0.1062401,0.05044471,-0.1122098,0.0375974,-0.006805808,0.003011456,-0.04896744,0.001070329,0.1185366,0.04907163
-0.01371419,0.1069029,0.05028326,-0.113205,0.03326969,-0.007446205,0.003448973,-0.04997083,0.0002719958,0.1182273,0.05009045
-0.01605174,0.1074692,0.05009865,-0.1148352,0.02846076,-0.008533783,0.003882792,-0.05096418,-0.0005181821,0.1186169,0.0511145
-0.01842496,0.1079389,0.04989119,-0.116463,0.02365188,-0.009608293,0.004313659,-0.05194748,-0.001300198,0.1192281,0.05214249
-0.02083371,0.1083122,0.0496611,-0.1180852,0.0188431,-0.01066811,0.004740539,-0.05292096,-0.002073775,0.1200541,0.05317331
-0.02328877,0.1085925,0.04941665,-0.1196997,0.01409678,-0.01171177,0.002596536,-0.0525407,-0.006790152,0.1210946,0.05304124
-0.02578949,0.1087796,0.04915785,-0.1212876,0.009350732,-0.01274733,0.0004790309,-0.05216363,-0.01146152,0.1223135,0.05341012
-0.02833484,0.1088737,0.04888463,-0.122831,0.00460507,-0.01378285,-0.001612301,-0.05178974,-0.01608821,0.1236876,0.05425502
-0.03092347,0.1088748,0.04859673,-0.1243122,-0.0001400709,-0.0148263,-0.003678071,-0.05141909,-0.02067086,0.1251933,0.05554039
-0.03355364,0.1087827,0.04829377,-0.1257137,-0.004884571,-0.01588552,-0.005718236,-0.05105166,-0.02520978,0.1268075,0.05722328
-0.03622834,0.1085954,0.0479525,-0.1270191,-0.009463206,-0.01696865,-0.0003005483,-0.05165058,-0.03112127,0.1284965,0.06030262
-0.03894497,0.1083128,0.04757303,-0.1282045,-0.01404098,-0.0180544,0.005068967,-0.05224676,-0.03696825,0.1302287,0.06420334
-0.04170045,0.107935,0.04715584,-0.1292474,-0.01861775,-0.01912201,0.01039045,-0.0528403,-0.04275129,0.1319741,0.0687585
-0.04449128,0.1074622,0.04670181,-0.1301255,-0.02319345,-0.0201509,0.01566437,-0.05343138,-0.04847101,0.1337036,0.07382225
-0.04731354,0.1068945,0.04621227,-0.130817,-0.02776811,-0.02112062,0.02089093,-0.05401976,-0.05412828,0.1353892,0.07927443
-0.05011643,0.1062449,0.0457094,-0.1313017,-0.0318983,-0.02201156,0.01928981,-0.05608342,-0.04406242,0.136902,0.07388467
-0.05289684,0.1055133,0.04519471,-0.1316164,-0.03602789,-0.02282885,0.01769192,-0.05812882,-0.03409997,0.1383548,0.0696762
-0.05565244,0.1046998,0.04466955,-0.1317996,-0.04015717,-0.02357851,0.01609711,-0.06015626,-0.02423952,0.1397844,0.066824
-0.05838164,0.1038041,0.04413519,-0.1318893,-0.04428625,-0.02426654,0.01450576,-0.0621658,-0.01448003,0.1412265,0.06545743
-0.06108362,0.1028264,0.04359273,-0.1319232,-0.04841523,-0.02489899,0.01291743,-0.06415763,-0.004820903,0.1427156,0.06562242
-0.06378682,0.1017753,0.04305745,-0.1319388,-0.05231909,-0.02548193,0.006799728,-0.06023986,-0.006114771,0.1442028,0.06093002
-0.06649081,0.100651,0.04252968,-0.1319307,-0.05622292,-0.02603886,0.0007452841,-0.05636055,-0.007402502,0.1457558,0.05684948
-0.06919504,0.09945314,0.0420093,-0.1318942,-0.06012672,-0.02659307,-0.005246795,-0.05251908,-0.008683738,0.147372,0.05349009
-0.07189887,0.09818187,0.04149572,-0.1318243,-0.0640305,-0.02716763,-0.01117675,-0.04871513,-0.009959032,0.1490491,0.05096338
-0.07460155,0.09683715,0.04098788,-0.131716,-0.06793427,-0.02778536,-0.01704579,-0.04494846,-0.01122789,0.1507852,0.04936587
-0.07730872,0.0954085,0.04045832,-0.1315643,-0.07204647,-0.02846874,-0.01450765,-0.04776849,-0.01298068,0.1526772,0.05158293
-0.08001928,0.09389578,0.03990603,-0.1313625,-0.07615872,-0.02920799,-0.01199392,-0.05056141,-0.01471251,0.1546265,0.05400711
-0.08273201,0.09229913,0.03933011,-0.1311039,-0.08027101,-0.02999336,-0.00950438,-0.05332772,-0.0164241,0.1566246,0.05660328
-0.08544555,0.09061857,0.0387299,-0.1307818,-0.08438338,-0.0308152,-0.007039046,-0.05606735,-0.01811542,0.1586632,0.05934025
-0.08815841,0.08885406,0.03810492,-0.1303897,-0.08849585,-0.03166394,-0.004597399,-0.05878076,-0.01978674,0.1607345,0.06219187
-0.09086403,0.08701441,0.03745169,-0.1299203,-0.09212534,-0.03253074,-0.001069744,-0.05933619,-0.02035611,0.1625565,0.06273994
-0.09356081,0.08509956,0.03677028,-0.129372,-0.09575498,-0.03340126,0.002423121,-0.05988762,-0.02091575,0.1643831,0.06348123
-0.09624706,0.08310954,0.03606095,-0.1287427,-0.09938477,-0.03426192,0.005881627,-0.06043493,-0.02146568,0.1662104,0.06440302
-0.09892108,0.0810445,0.03532427,-0.1280302,-0.1030148,-0.03509926,0.009305775,-0.0609782,-0.02200613,0.1680349,0.06549204
-0.1015811,0.07890433,0.03456108,-0.1272324,-0.106645,-0.03589995,0.01269654,-0.06151747,-0.02253707,0.169853,0.0667347
-0.1042101,0.07670465,0.03378904,-0.1263452,-0.1096768,-0.03665127,0.0107282,-0.05853164,-0.0189222,0.1712759,0.06244275
-0.1068068,0.07444558,0.03300896,-0.1253846,-0.112709,-0.03736015,0.0087764,-0.05557578,-0.01534502,0.1726858,0.05831948
-0.10937,0.07212688,0.03222152,-0.1243644,-0.1157414,-0.03803412,0.006841421,-0.05264948,-0.01180545,0.1740953,0.0543888
-0.111899,0.06974863,0.03142725,-0.1232985,-0.1187739,-0.03868068,0.004922584,-0.04975249,-0.008302879,0.1755163,0.05068017
-0.1143933,0.06731075,0.0306265,-0.1222004,-0.1218066,-0.03930726,0.003019969,-0.04688431,-0.004836795,0.17696,0.04722979
-0.1168752,0.06481953,0.02982708,-0.1210826,-0.1246641,-0.03992127,-0.001425071,-0.04558923,-0.008420803,0.1783139,0.04638231
-0.1193439,0.06227493,0.02902874,-0.1199322,-0.1275218,-0.04053993,-0.005822091,-0.04430639,-0.01197326,0.1796915,0.0462635
-0.1217984,0.0596769,0.02823089,-0.1187354,-0.1303797,-0.04118026,-0.01017199,-0.04303589,-0.01549415,0.1810877,0.0468575
-0.1242374,0.05702546,0.02743262,-0.1174784,-0.1332379,-0.04185911,-0.01447499,-0.04177752,-0.0189835,0.1824985,0.04811715
-0.1266594,0.05432054,0.02663268,-0.1161478,-0.1360966,-0.04259312,-0.0187313,-0.04053106,-0.02244226,0.1839205,0.04997283
-0.1290562,0.0515607,0.02578988,-0.1147272,-0.1385179,-0.04339922,-0.009999848,-0.04152847,-0.02321608,0.1850217,0.04861684
-0.1314258,0.04874599,0.02490373,-0.1132162,-0.1409398,-0.0442431,-0.001356005,-0.0425201,-0.02397458,0.1861166,0.04883214
-0.1337662,0.04587646,0.02397439,-0.1116119,-0.1433624,-0.04509106,0.007202044,-0.04350593,-0.02471838,0.1871983,0.05055328
-0.1360757,0.04295219,0.02300271,-0.1099114,-0.1457857,-0.04590974,0.01567444,-0.04448587,-0.0254473,0.1882596,0.05359334
-0.1383519,0.03997317,0.0219902,-0.1081118,-0.1482098,-0.04666613,0.02406246,-0.0454602,-0.02616202,0.1892935,0.05770687
-0.1405859,0.03696588,0.02097666,-0.1062028,-0.1497737,-0.04732777,0.01995617,-0.04665758,-0.02449927,0.1896078,0.05635062
-0.1427755,0.03393026,0.01996356,-0.1041982,-0.1513385,-0.04790987,0.01588905,-0.04784162,-0.02285755,0.1898841,0.05535115
-0.1449192,0.03086621,0.01895208,-0.1021045,-0.1529041,-0.04842817,0.01186053,-0.04901231,-0.02123655,0.1901323,0.05471627
-0.1470154,0.02777363,0.01794305,-0.09992795,-0.1544707,-0.04889826,0.007870345,-0.05017012,-0.01963566,0.1903623,0.05444761
-0.1490625,0.02465251,0.01693703,-0.09767496,-0.156038,-0.04933559,0.00391775,-0.05131496,-0.01805535,0.190584,0.05453961
-0.1510717,0.02150771,0.0159257,-0.09534814,-0.157285,-0.04975515,0.002825284,-0.05229162,-0.02065464,0.1905398,0.05629396
-0.1530413,0.01833919,0.01490926,-0.09294079,-0.1585328,-0.05016137,0.001746047,-0.05325792,-0.02322911,0.190491,0.05812956
-0.1549694,0.01514691,0.01388786,-0.09044287,-0.1597818,-0.05055833,0.0006798276,-0.05421398,-0.0257788,0.190437,0.06003469
-0.1568539,0.0119309,0.01286155,-0.08784441,-0.1610319,-0.05095005,-0.0003734787,-0.05515999,-0.02830417,0.1903781,0.06199912
-0.1586925,0.008691072,0.0118303,-0.08513556,-0.1622835,-0.05134048,-0.001414101,-0.05609582,-0.03080535,0.1903151,0.06401336
-0.1604616,0.005435809,0.01078302,-0.08229825,-0.1629274,-0.05173288,0.001412025,-0.05260351,-0.02745202,0.1897225,0.05935264
-0.162159,0.002165109,0.009719992,-0.07935353,-0.1635728,-0.05211687,0.004208228,-0.04914766,-0.02412916,0.1891275,0.05491282
-0.163783,-0.001121193,0.008641727,-0.07631444,-0.1642195,-0.05248158,0.00697514,-0.04572796,-0.02083656,0.1885372,0.05073323
-0.1653322,-0.004422933,0.007548915,-0.07319389,-0.1648676,-0.05281629,0.009712579,-0.04234404,-0.01757395,0.187958,0.04686359
-0.1668052,-0.007740274,0.006442493,-0.07000469,-0.1655167,-0.05311039,0.01242129,-0.03899563,-0.01434094,0.1873957,0.043366
-0.1682107,-0.01105353,0.005345616,-0.06674892,-0.1654924,-0.05335218,0.007710837,-0.03809837,-0.01380489,0.1862515,0.04124946
-0.1695478,-0.01436304,0.004258856,-0.06343915,-0.1654691,-0.05356127,0.003047634,-0.03720877,-0.01327745,0.1851307,0.03962412
-0.1708154,-0.01766862,0.003182318,-0.06007743,-0.1654467,-0.05375601,-0.001569486,-0.03632692,-0.01275876,0.1840424,0.03853432
-0.1720125,-0.02097034,0.002115782,-0.05666582,-0.165425,-0.05395458,-0.006140559,-0.03545265,-0.01224873,0.182996,0.03800826
-0.1731383,-0.0242684,0.001058716,-0.05320629,-0.1654041,-0.05417499,-0.01066572,-0.03458602,-0.01174699,0.182001,0.03805184
-0.1741919,-0.0275628,-9.234995E-06,-0.04969678,-0.1651464,-0.05443465,-0.008820132,-0.03480853,-0.0110266,0.1808487,0.03756347
-0.1751724,-0.03085355,-0.00108866,-0.04614407,-0.1648895,-0.0547267,-0.006993684,-0.03502912,-0.01031201,0.1797577,0.03717914
-0.1760791,-0.03414062,-0.002180006,-0.04255095,-0.1646332,-0.05504392,-0.005186026,-0.03524773,-0.009603432,0.1787302,0.03689882
-0.1769112,-0.03742402,-0.003283564,-0.0389202,-0.1643775,-0.05537913,-0.003397071,-0.0354643,-0.008900414,0.1777683,0.03672158
-0.1776681,-0.04070379,-0.004399501,-0.03525458,-0.1641224,-0.05572524,-0.001626664,-0.03567928,-0.008203123,0.1768738,0.03664625
-0.1783546,-0.04396906,-0.0055281,-0.03154734,-0.163339,-0.05607459,0.000286482,-0.03475498,-0.009673027,0.175554,0.03607712
-0.1789698,-0.04721982,-0.006669249,-0.02780208,-0.1625563,-0.05642033,0.002181662,-0.03384043,-0.01112684,0.1743008,0.0356895
-0.179513,-0.05045605,-0.007822681,-0.02401306,-0.1617744,-0.05675501,0.004059023,-0.03293535,-0.01256479,0.1731147,0.03548362
-0.1799831,-0.05367783,-0.008987956,-0.0201746,-0.1609934,-0.05707126,0.005918958,-0.03203974,-0.01398701,0.1719972,0.03545723
-0.1803788,-0.05688506,-0.01016453,-0.0162811,-0.1602135,-0.05736177,0.007761293,-0.03115328,-0.01539378,0.1709498,0.03560523
-0.1806884,-0.0600692,-0.0113549,-0.01231733,-0.1589304,-0.05761842,0.01065536,-0.03030634,-0.0133195,0.1695006,0.03477672
-0.1809107,-0.0632301,-0.01255811,-0.008301057,-0.1576483,-0.05783056,0.01351901,-0.02946909,-0.01126418,0.1681258,0.03432306
-0.181045,-0.06636803,-0.01377291,-0.00424043,-0.1563672,-0.05798689,0.01635332,-0.02864126,-0.009227402,0.1668268,0.0342476
-0.1810905,-0.06948264,-0.01499793,-0.0001435461,-0.155087,-0.05807624,0.01915787,-0.027823,-0.007209414,0.1656045,0.03454155
-0.1810468,-0.07257423,-0.01623145,0.003981574,-0.1538076,-0.05808755,0.021934,-0.02701405,-0.005209504,0.164459,0.0351852
-0.1809178,-0.07562336,-0.01745441,0.008141655,-0.1517985,-0.05800738,0.01905143,-0.02568976,-0.004820233,0.1627081,0.03234433
-0.180703,-0.07863041,-0.01866528,0.01232052,-0.1497902,-0.05784945,0.01619798,-0.02437856,-0.004435725,0.1610449,0.02960346
-0.1804021,-0.08159517,-0.01986287,0.01651663,-0.1477824,-0.05762519,0.01337234,-0.02308044,-0.004056336,0.1594776,0.02698111
-0.1800149,-0.08451778,-0.02104614,0.02072846,-0.1457753,-0.05734594,0.0105751,-0.02179526,-0.003681538,0.1580147,0.02450347
-0.179541,-0.08739833,-0.02221427,0.02495452,-0.1437686,-0.0570229,0.007805766,-0.02052282,-0.003311361,0.1566644,0.02220543
-0.1789907,-0.0902288,-0.02337032,0.02920174,-0.1413536,-0.0566652,0.006326077,-0.01813988,-0.006658817,0.1550629,0.0203326
-0.1783631,-0.09300925,-0.02451378,0.03347511,-0.1389392,-0.05628084,0.004862826,-0.01578013,-0.009973062,0.1535976,0.01929045
-0.1776576,-0.09573971,-0.02564431,0.03778788,-0.1365258,-0.0558758,0.003415693,-0.01344352,-0.01325429,0.1522804,0.01918519
-0.176873,-0.09842019,-0.02676165,0.04215316,-0.1341135,-0.05545605,0.001984656,-0.01112968,-0.01650289,0.1511248,0.02000385
-0.1760077,-0.1010508,-0.02786567,0.04658391,-0.1317027,-0.05502746,0.0005694557,-0.008838219,-0.01971954,0.1501456,0.02161709
-0.1750504,-0.1036292,-0.02897194,0.05110032,-0.128958,-0.0545941,0.003926746,-0.01229145,-0.01827727,0.1490702,0.02237315
-0.1739994,-0.1061555,-0.03008,0.05568937,-0.126215,-0.054144,0.007248939,-0.01571147,-0.01684922,0.1481995,0.02415147
-0.1728535,-0.1086296,-0.03118915,0.06034528,-0.1234736,-0.05366358,0.01053619,-0.01909861,-0.01543466,0.1475366,0.02672072
-0.1716115,-0.1110516,-0.03229841,0.06506232,-0.1207338,-0.05313942,0.01378911,-0.02245316,-0.01403387,0.1470835,0.02985354
-0.1702722,-0.1134214,-0.03340654,0.06983482,-0.1179957,-0.05255821,0.01700775,-0.02577534,-0.01264637,0.1468409,0.03337008
-0.1688282,-0.1157228,-0.03449089,0.07467087,-0.1146703,-0.0519031,0.01382458,-0.02082945,-0.01120592,0.1463521,0.02739631
-0.1672786,-0.1179554,-0.03555045,0.07955121,-0.1113463,-0.05119073,0.01067375,-0.01593276,-0.009779904,0.1461058,0.02152739
-0.1656227,-0.1201198,-0.03658438,0.08447025,-0.1080236,-0.05043415,0.007555515,-0.01108477,-0.008368175,0.1461093,0.01581089
-0.1638601,-0.1222156,-0.03759221,0.08942245,-0.1047019,-0.0496463,0.004468114,-0.006284958,-0.006970546,0.1463681,0.01039487
-0.1619902,-0.1242432,-0.03857361,0.09440236,-0.1013809,-0.04883998,0.001412733,-0.001532917,-0.00558688,0.1468851,0.005963126
-0.1600078,-0.1261988,-0.0395352,0.099411,-0.09779485,-0.04802598,2.391969E-05,-0.004739854,-0.000791327,0.1474885,0.004805516
-0.1579131,-0.1280829,-0.04047696,0.1044227,-0.09420885,-0.04721142,-0.001351391,-0.007914607,0.003956308,0.148352,0.008950957
-0.1557065,-0.1298951,-0.04139904,0.1094183,-0.09062243,-0.04640152,-0.002713525,-0.01105765,0.008656315,0.1494586,0.01430268
-0.1533889,-0.1316356,-0.04230164,0.1143789,-0.08703507,-0.04560141,-0.004062522,-0.01416923,0.01330921,0.1507883,0.01985966
-0.1509613,-0.1333043,-0.04318511,0.1192858,-0.08344635,-0.04481622,-0.005398479,-0.01724973,0.01791515,0.1523184,0.02544896
-0.1484355,-0.1349039,-0.04405868,0.1241189,-0.07992472,-0.04405151,-0.003516498,-0.01567367,0.01806588,0.1540584,0.02417449
-0.1458129,-0.1364344,-0.04492253,0.1288792,-0.07640131,-0.04329942,-0.001653494,-0.01411255,0.01821568,0.1559546,0.02310215
-0.1430949,-0.1378959,-0.04577671,0.1335662,-0.07287619,-0.04255266,0.0001900712,-0.01256647,0.01836424,0.1579924,0.02225304
-0.1402831,-0.1392881,-0.04662115,0.1381794,-0.06934941,-0.04180402,0.002014543,-0.01103529,0.01851183,0.1601576,0.02164541
-0.137379,-0.1406111,-0.04745562,0.1427181,-0.06582105,-0.04104634,0.003820197,-0.009518703,0.01865847,0.1624367,0.02129174
-0.1343901,-0.1418553,-0.0482727,0.1471898,-0.06192298,-0.04027,0.003293787,-0.008230504,0.01683557,0.1646844,0.019027
-0.1313176,-0.1430208,-0.04907212,0.1515937,-0.05802357,-0.03947976,0.002772789,-0.006955375,0.0150312,0.167051,0.01679293
-0.1281627,-0.1441076,-0.04985367,0.1559371,-0.05412298,-0.0386778,0.002256714,-0.005692961,0.01324487,0.1695336,0.01459209
-0.1249265,-0.1451156,-0.05061718,0.1602272,-0.05022137,-0.03786632,0.001745736,-0.004443283,0.01147643,0.1721302,0.01242975
-0.1216099,-0.1460447,-0.05136255,0.1644711,-0.04631883,-0.03704748,0.001239388,-0.003205989,0.009725629,0.1748391,0.01031515
-0.1182125,-0.1468981,-0.05209715,0.1686749,-0.04246783,-0.03622377,0.003068232,-0.00400647,0.008824574,0.1776708,0.01016558
-0.114735,-0.1476755,-0.05282068,0.1728432,-0.03861623,-0.03538744,0.004878746,-0.004798568,0.007932596,0.1806053,0.01047638
-0.111178,-0.1483771,-0.05353269,0.1769796,-0.03476413,-0.03453116,0.006670999,-0.005582443,0.007049781,0.1836375,0.01119667
-0.1075421,-0.1490027,-0.05423257,0.1810875,-0.03091168,-0.03364768,0.008445636,-0.006358027,0.006175738,0.1867629,0.01224308
-0.1038278,-0.1495524,-0.0549196,0.1851704,-0.027059,-0.03272983,0.01020275,-0.007125363,0.005310471,0.1899777,0.01353026
-0.1000157,-0.150023,-0.05558816,0.189235,-0.02304424,-0.03176925,0.0103669,-0.008337117,0.01101172,0.193262,0.01726957
-0.09610684,-0.1504145,-0.05623737,0.1932551,-0.01902896,-0.03076642,0.01052875,-0.009538038,0.01665588,0.1966119,0.02189171
-0.09210282,-0.1507269,-0.05686639,0.1972081,-0.01501274,-0.02972059,0.01068832,-0.01072789,0.0222433,0.1999993,0.02690896
-0.08800554,-0.15096,-0.05747431,0.2010714,-0.01099522,-0.02863107,0.01084564,-0.01190695,0.02777454,0.203397,0.03210652
-0.0838174,-0.1511139,-0.05806022,0.2048228,-0.006976053,-0.02749714,0.01100057,-0.01307526,0.03325056,0.206778,0.03738415
-0.07955983,-0.151188,-0.05861307,0.2084376,-0.003115326,-0.02631956,0.007969266,-0.01166702,0.03196796,0.2101158,0.03495109
-0.07523538,-0.1511824,-0.05913231,0.2119237,0.0007472634,-0.02510923,0.004967749,-0.01027467,0.03069779,0.2134073,0.0327506
-0.07084651,-0.1510971,-0.05961759,0.2152864,0.004611686,-0.02387831,0.001995634,-0.008897823,0.02944005,0.2166556,0.03081997
-0.06639554,-0.150932,-0.06006889,0.2185306,0.008477867,-0.02263883,-0.0009472918,-0.007536337,0.02819422,0.2198636,0.02919944
-0.06188473,-0.1506873,-0.0604863,0.2216615,0.01234581,-0.02140269,-0.00386086,-0.006190164,0.02696046,0.2230343,0.02793011
-0.05732506,-0.1503686,-0.06087967,0.224681,0.01600626,-0.02018357,-0.003729032,-0.005716052,0.02306375,0.2261529,0.02405235
-0.05271824,-0.1499761,-0.06124924,0.227608,0.01966815,-0.01897908,-0.00359814,-0.005246946,0.01920585,0.2292431,0.02023219
-0.04806572,-0.1495097,-0.06159531,0.2304577,0.02333124,-0.01778871,-0.003468151,-0.004782795,0.01538641,0.2323178,0.01648165
-0.04336862,-0.1489694,-0.06191815,0.2332457,0.02699526,-0.01661199,-0.003339413,-0.004323512,0.01160512,0.2353896,0.01282667
-0.03862777,-0.1483553,-0.06221804,0.235987,0.03065999,-0.01544842,-0.003211825,-0.003869011,0.007861592,0.2384713,0.009332186
-0.03382419,-0.1476746,-0.06250694,0.2386945,0.03415614,-0.014299,0.0007338017,-0.003978286,0.01070072,0.2415496,0.01143987
-0.02895885,-0.1469273,-0.06278473,0.2413591,0.03765279,-0.01314644,0.004639843,-0.004085449,0.01351182,0.2446319,0.01485894
-0.02403289,-0.1461134,-0.06305085,0.2439694,0.04114994,-0.01197511,0.008506862,-0.004190823,0.01629521,0.2477051,0.01885374
-0.01904772,-0.1452326,-0.06330454,0.2465144,0.04464759,-0.01076952,0.01233448,-0.004294463,0.01905085,0.2507563,0.02309798
-0.01400493,-0.1442852,-0.0635447,0.2489829,0.04814567,-0.009514346,0.01612378,-0.004396198,0.02177923,0.2537735,0.02745246
-0.008905666,-0.1432713,-0.06374707,0.2513608,0.05135518,-0.0081972,0.01235727,-0.004658061,0.02476886,0.2566843,0.02806949
-0.003751992,-0.142191,-0.06391078,0.2536396,0.05456527,-0.006830452,0.008628289,-0.00491976,0.02772782,0.2595324,0.02945307
0.001453777,-0.1410442,-0.06403527,0.2558073,0.05777617,-0.005429011,0.004936359,-0.005181562,0.03065703,0.262307,0.03148126
0.006709093,-0.1398309,-0.06412023,0.2578523,0.06098805,-0.004007635,0.001281363,-0.005443162,0.03355646,0.264997,0.0340192
0.01201118,-0.1385512,-0.06416567,0.2597629,0.0642011,-0.002580939,-0.002337291,-0.005704639,0.03642655,0.2675915,0.03694454
0.01735264,-0.1372165,-0.06417808,0.2615235,0.06690009,-0.001168598,-0.003902734,-0.005668703,0.03778416,0.2699473,0.03840584
0.02273041,-0.1358269,-0.06415781,0.2631333,0.06960039,0.0002283523,-0.005452604,-0.005634109,0.03912783,0.2721826,0.03990566
0.02814133,-0.1343822,-0.06410533,0.2645867,0.07230197,0.001603716,-0.006987635,-0.005600842,0.0404583,0.2742923,0.04143754
0.03358211,-0.1328824,-0.06402126,0.2658787,0.07500477,0.002951352,-0.008507046,-0.005568853,0.04177509,0.2762715,0.04299465
0.0390494,-0.1313276,-0.06390631,0.2670039,0.0777088,0.004265184,-0.01001171,-0.005538392,0.04307874,0.2781149,0.04457226
0.04452636,-0.1297258,-0.06376824,0.2679556,0.08005579,0.005535823,-0.009167789,-0.003741829,0.03958053,0.2797138,0.04080034
0.05000994,-0.128077,-0.06360774,0.2687497,0.08240367,0.006770027,-0.008333624,-0.001963195,0.03611705,0.2811807,0.03711798
0.05549736,-0.1263813,-0.06342548,0.2694,0.08475228,0.007971082,-0.007508973,-0.0002022334,0.03268805,0.2825294,0.03354004
0.0609861,-0.1246386,-0.06322203,0.2699201,0.08710141,0.00914225,-0.006693645,0.001540967,0.02929288,0.283773,0.03008741
0.06647394,-0.122849,-0.06299789,0.2703237,0.08945097,0.01028677,-0.005887641,0.003266887,0.02593188,0.2849249,0.02679178
0.07196618,-0.1210215,-0.06276058,0.270624,0.09144814,0.01140478,-0.003047999,-0.0003951974,0.02628036,0.2858849,0.02645948
0.07746075,-0.1191562,-0.06251021,0.2708198,0.09344544,0.01251069,-0.0002347233,-0.004019188,0.02662541,0.286761,0.02692808
0.08295555,-0.1172529,-0.06224672,0.2709096,0.09544273,0.01361567,0.002552194,-0.007605504,0.02696733,0.287553,0.02813529
0.08844846,-0.1153117,-0.06196981,0.2708921,0.0974399,0.01473076,0.005313033,-0.01115452,0.02730623,0.2882604,0.02997135
0.09393733,-0.1133326,-0.06167897,0.2707657,0.09943672,0.01586691,0.008048416,-0.01466643,0.0276419,0.2888831,0.0323103
0.09942597,-0.1113157,-0.06136593,0.2705291,0.1013419,0.01703413,0.008444501,-0.01438135,0.02904806,0.2893896,0.03349511
0.104912,-0.1092612,-0.06103001,0.2701767,0.1032465,0.01823475,0.008836058,-0.01409917,0.03044019,0.2898065,0.03469104
0.110393,-0.107169,-0.06067051,0.2697028,0.1051504,0.0194703,0.009223438,-0.01381976,0.03181881,0.2901298,0.0358956
0.1158664,-0.1050392,-0.06028667,0.2691021,0.1070535,0.02074229,0.009606395,-0.01354323,0.03318362,0.290356,0.03710599
0.1213294,-0.1028716,-0.05987773,0.2683691,0.1089557,0.0220522,0.009984921,-0.01326954,0.03453498,0.2904817,0.03832028
0.1267686,-0.1006799,-0.05943278,0.2675026,0.1100424,0.02339352,0.006929554,-0.01442242,0.03265784,0.2901969,0.03636701
0.1321813,-0.09846391,-0.05895136,0.2665065,0.1111282,0.02476192,0.003906126,-0.01556562,0.03079828,0.2898074,0.03472866
0.1375653,-0.09622383,-0.05843326,0.2653879,0.112213,0.02614539,0.0009140047,-0.01669894,0.0289564,0.28932,0.03343895
0.1429182,-0.09395965,-0.05787851,0.2641541,0.1132971,0.02753204,-0.002046727,-0.01782259,0.02713211,0.2887414,0.03252668
0.1482379,-0.09167147,-0.05728739,0.2628123,0.1143804,0.02891006,-0.004976857,-0.01893673,0.02532491,0.2880781,0.03201125
0.1535247,-0.08936912,-0.05667903,0.2613718,0.1151948,0.03026516,-0.001631896,-0.01639027,0.0233633,0.2872299,0.0285858
0.1587768,-0.08705266,-0.0560535,0.2598383,0.1160085,0.03161326,0.001679443,-0.01386791,0.02142235,0.2863098,0.02557453
0.1639924,-0.08472206,-0.05541056,0.2582197,0.1168213,0.03296752,0.00495682,-0.01136923,0.01950193,0.285327,0.02311178
0.1691701,-0.08237735,-0.05474976,0.2565237,0.1176333,0.03434094,0.008200998,-0.008894097,0.01760169,0.2842909,0.02135839
0.1743085,-0.08001848,-0.05407034,0.2547577,0.1184443,0.03574642,0.01141203,-0.006442206,0.01572138,0.2832108,0.02046701
0.179432,-0.0776498,-0.05335702,0.2529329,0.1189123,0.03719316,0.009586702,-0.01170193,0.02401162,0.2819548,0.02837953
0.1845383,-0.07527136,-0.05260907,0.2510129,0.1193789,0.03867723,0.007780112,-0.01691158,0.03221749,0.2806327,0.03720885
0.1896247,-0.07288323,-0.05182591,0.2489652,0.1198438,0.04019124,0.005992536,-0.02207156,0.04033979,0.2792159,0.04637201
0.1946878,-0.07048526,-0.05100712,0.2467575,0.1203066,0.04172787,0.004223168,-0.02718239,0.04837969,0.2776763,0.05565349
0.1997236,-0.06807755,-0.0501524,0.2443579,0.1207668,0.04327981,0.002472136,-0.03224441,0.05633777,0.2759865,0.06495967
0.2046988,-0.06566931,-0.04924307,0.2417451,0.1204929,0.04483175,-0.005109528,-0.0286463,0.0527694,0.2738049,0.06026049
0.2096093,-0.06326071,-0.04827982,0.2389238,0.1202161,0.04636198,-0.01261697,-0.02509259,0.04923237,0.2714516,0.05668027
0.2144514,-0.06085192,-0.04726391,0.2359082,0.1199369,0.04784109,-0.02005125,-0.0215825,0.04572587,0.2689355,0.05439405
0.2192214,-0.05844289,-0.04619722,0.232712,0.1196554,0.04924005,-0.02741302,-0.01811579,0.04224991,0.2662646,0.05352299
0.223916,-0.05603393,-0.04508214,0.2293491,0.1193722,0.05053008,-0.03470261,-0.01469174,0.03880412,0.2634465,0.05409139
0.2285398,-0.05364855,-0.04396231,0.2258464,0.1183932,0.05167655,-0.0287493,-0.01483687,0.0385936,0.2601807,0.05035991
0.2330898,-0.05128701,-0.04283975,0.222192,0.1174123,0.05270939,-0.02285503,-0.01497616,0.03838696,0.2567747,0.04711896
0.2375629,-0.04894926,-0.04171612,0.218387,0.1164292,0.05365162,-0.01701948,-0.01510952,0.03818418,0.2532334,0.04445213
0.2419562,-0.04663536,-0.04059258,0.2144321,0.1154435,0.05452602,-0.01124248,-0.0152374,0.03798516,0.2495625,0.04244342
0.2462667,-0.04434524,-0.03946988,0.2103281,0.1144549,0.05535515,-0.005523205,-0.0153597,0.03779013,0.2457682,0.04116455
0.2504819,-0.0420873,-0.03833544,0.2060889,0.1128808,0.05615713,-0.004175749,-0.01834079,0.03505502,0.2415954,0.03978286
0.2545992,-0.03986166,-0.03718959,0.2017124,0.1113037,0.05694119,-0.002838421,-0.02129124,0.03234804,0.2373156,0.03883
0.2586161,-0.03766832,-0.03603255,0.1972091,0.1097236,0.0577122,-0.001511799,-0.02421146,0.0296686,0.2329408,0.03832371
0.2625305,-0.03550729,-0.03486446,0.1925894,0.1081408,0.05847503,-0.000195695,-0.02710185,0.02701683,0.2284829,0.03826823
0.2663402,-0.03337878,-0.03368532,0.1878635,0.1065554,0.05923447,0.001110687,-0.02996272,0.02439177,0.2239542,0.03865174
0.2700523,-0.03128932,-0.03249696,0.1830493,0.1046697,0.05999321,0.003101043,-0.02871548,0.02362916,0.2192304,0.03731665
0.2736647,-0.02923901,-0.03129913,0.1781422,0.1027815,0.06076114,0.00507131,-0.02747985,0.02287583,0.2144542,0.03611321
0.2771781,-0.02723628,-0.0300639,0.1732508,0.1004688,0.06292206,0.007021819,-0.02625559,0.0221309,0.2099262,0.03504909
0.2805905,-0.02528124,-0.02879074,0.1682724,0.09815367,0.0651076,0.008952574,-0.0250427,0.02139469,0.205399,0.03413237
0.2839003,-0.02337381,-0.02747896,0.16321,0.095836,0.06732536,0.01086382,-0.02384092,0.02066665,0.2008849,0.03336949
0.2871039,-0.02151664,-0.02611385,0.1580746,0.0932181,0.06958061,0.008106278,-0.02671756,0.02018759,0.1962617,0.03445401
0.2901997,-0.01970997,-0.02469488,0.1528599,0.09059776,0.07186449,0.005377968,-0.0295663,0.01971101,0.1916732,0.03593902
0.2931862,-0.01795365,-0.02322184,0.1475677,0.08797507,0.07416601,0.002678133,-0.03238766,0.01923746,0.1871268,0.03776523
0.2960618,-0.01624781,-0.02169465,0.1421996,0.08535011,0.07647432,6.43332E-06,-0.03518162,0.01876684,0.1826299,0.03987406
0.2988252,-0.01459262,-0.02011345,0.1367575,0.08272304,0.07877865,-0.002636726,-0.03794875,0.01829917,0.1781903,0.04221278
0.3014791,-0.01299523,-0.01848333,0.1312519,0.07979415,0.08106604,-0.003612831,-0.03505985,0.01782697,0.1736833,0.03949743
0.3040221,-0.01145576,-0.01680467,0.1256761,0.0768633,0.08333533,-0.004579922,-0.03220015,0.01735856,0.1692549,0.03686659
0.3064529,-0.009974152,-0.01507795,0.120032,0.07393052,0.08558304,-0.00553805,-0.02936939,0.01689373,0.1649177,0.03433117
0.3087701,-0.00855051,-0.0133037,0.1143214,0.07099591,0.08780575,-0.006487088,-0.02656743,0.01643287,0.1606849,0.03190533
0.3109724,-0.007184893,-0.0114825,0.1085462,0.06805952,0.09000007,-0.00742741,-0.0237939,0.01597549,0.1565707,0.02960629
0.3130656,-0.005889446,-0.009614788,0.1027273,0.0645168,0.09215835,-0.008561873,-0.02579126,0.01886508,0.1523433,0.03308151
0.3150483,-0.004664227,-0.0077013,0.09683467,0.06097199,0.09428032,-0.009685893,-0.02776854,0.02172549,0.1482677,0.03656372
0.3169186,-0.003509298,-0.005742881,0.09085724,0.05742474,0.09636135,-0.01079947,-0.02972608,0.02455705,0.1443542,0.04004144
0.3186746,-0.002424642,-0.003740482,0.08478399,0.05387469,0.09839683,-0.01190255,-0.03166389,0.0273603,0.1406156,0.04350699
0.3203139,-0.00141041,-0.001695108,0.07860405,0.0503214,0.1003822,-0.01299546,-0.03358233,0.03013516,0.1370672,0.04695512
0.3218212,-0.0004715621,0.0003931262,0.0723158,0.04649566,0.1023113,-0.0143894,-0.03398788,0.0281541,0.1336376,0.04642073
0.3231941,0.0003919303,0.002522945,0.06591796,0.04266652,0.1041802,-0.01576829,-0.03439077,0.02619169,0.1304574,0.04601488
0.3244309,0.001179904,0.004692994,0.05941816,0.03883418,0.1059836,-0.01713174,-0.03479096,0.02424835,0.1275584,0.04573718
0.3255295,0.001892313,0.006901816,0.05282394,0.03499889,0.1077161,-0.01847966,-0.03518862,0.0223238,0.1249722,0.04558606
0.3264884,0.0025291,0.009147814,0.04614279,0.03116086,0.1093722,-0.01981299,-0.03558347,0.02041737,0.1227291,0.04555883
0.3273043,0.00308311,0.01142333,0.03939233,0.02704021,0.1109456,-0.01914731,-0.03472324,0.01761505,0.1207968,0.04338909
0.327976,0.003554419,0.01372675,0.03257335,0.02291737,0.1124403,-0.01848667,-0.03387248,0.01484105,0.1192856,0.04134439
0.3285024,0.003942803,0.01605662,0.02569664,0.01879266,0.1138587,-0.01783086,-0.0330311,0.012095,0.1182256,0.03943707
0.3288825,0.00424844,0.01841144,0.01877285,0.01466644,0.1152036,-0.01718017,-0.032199,0.009376624,0.117641,0.03768096
0.3291159,0.004471153,0.0207898,0.01181253,0.01053905,0.1164776,-0.01653435,-0.03137589,0.00668527,0.1175485,0.0360905
0.3292121,0.004609525,0.02318557,0.00482632,0.006405473,0.1176832,-0.01434164,-0.03196817,0.007683638,0.1179562,0.03587038
0.3291705,0.004663542,0.02559761,-0.002189798,0.002270907,0.1188288,-0.01217096,-0.0325541,0.008673741,0.1188707,0.03582088
0.3289905,0.004633233,0.02802496,-0.009239613,-0.001864851,0.1199227,-0.01002286,-0.03313357,0.009655769,0.1202926,0.03593779
0.3286712,0.004518494,0.03046683,-0.01632689,-0.006001979,0.120973,-0.007896441,-0.03370653,0.01062947,0.1222173,0.03621422
0.3282119,0.004319489,0.03292254,-0.02345535,-0.01014063,0.1219879,-0.005792191,-0.03427319,0.01159472,0.1246356,0.03664203
0.327617,0.004037619,0.03541049,-0.03062312,-0.01442611,0.1229752,-0.009905617,-0.03539705,0.01445673,0.1275491,0.03949771
0.3268855,0.003672972,0.03792967,-0.03784677,-0.01871373,0.123919,-0.01397925,-0.03651015,0.01728702,0.1309141,0.04274637
0.3260158,0.003225327,0.0404788,-0.04513717,-0.02300391,0.1248034,-0.01801368,-0.03761284,0.02008675,0.1346938,0.04628927
0.3250064,0.002694771,0.04305624,-0.05250509,-0.02729709,0.1256126,-0.02200973,-0.03870511,0.02285568,0.138854,0.05004894
0.3238552,0.00208123,0.04566006,-0.05996112,-0.03159381,0.126331,-0.02596711,-0.03978711,0.02559465,0.1433633,0.05396657
0.3225399,0.001376927,0.04827503,-0.06750634,-0.03612666,0.1269433,-0.02560293,-0.04032291,0.02139587,0.1482459,0.05233766
0.321059,0.0005818903,0.05089903,-0.07513377,-0.04066296,0.1274506,-0.02523861,-0.04085525,0.01723955,0.1534348,0.05102294
0.3194112,-0.0003039688,0.05352997,-0.08282734,-0.04520218,0.1278543,-0.02487451,-0.04138423,0.01312526,0.1589035,0.05003667
0.3175957,-0.001280755,0.0561658,-0.0905711,-0.04974371,0.1281556,-0.02451033,-0.0419098,0.009053051,0.1646251,0.0493877
0.3156119,-0.002348438,0.05880447,-0.09834928,-0.05428696,0.1283557,-0.02414647,-0.04243205,0.005022183,0.1705721,0.04907905
0.3134596,-0.003507972,0.06142376,-0.1061549,-0.05862504,0.1284553,-0.01709423,-0.04042754,0.0004766332,0.1766537,0.04389563
0.311139,-0.004759416,0.06402241,-0.1139618,-0.06296344,0.1284825,-0.01010862,-0.03844448,-0.004018388,0.1829192,0.03995385
0.3086505,-0.006102636,0.06659971,-0.1217526,-0.06730133,0.1284645,-0.003189213,-0.03648284,-0.008463693,0.1893576,0.03758727
0.305995,-0.007537588,0.0691555,-0.1295102,-0.07163793,0.1284283,0.003664196,-0.03454209,-0.01285934,0.1959559,0.03703978
0.3031736,-0.009064093,0.07169013,-0.1372177,-0.07597241,0.1284007,0.01045262,-0.03262238,-0.01720634,0.2026999,0.03833451
0.3002059,-0.01066513,0.07423368,-0.1448789,-0.07980162,0.1284063,0.007465472,-0.03713962,-0.01378981,0.2093952,0.04031431
0.297093,-0.01234052,0.07678651,-0.1524863,-0.08362854,0.1284348,0.004504567,-0.04161134,-0.01041047,0.2161974,0.04312972
0.2938356,-0.0140904,0.07934877,-0.1600528,-0.08745375,0.1284742,0.001569512,-0.04603801,-0.00706779,0.2230934,0.04660382
0.2904341,-0.01591472,0.08192039,-0.1675914,-0.09127785,0.1285124,-0.001339797,-0.05042015,-0.003761316,0.2300738,0.050578
0.2868889,-0.01781352,0.08450096,-0.1751146,-0.09510137,0.1285376,-0.004223478,-0.05475805,-0.0004908004,0.2371314,0.05492288
0.2831859,-0.01978411,0.0870892,-0.1826404,-0.09879343,0.1285374,-0.006703596,-0.05204557,-0.003525872,0.2442121,0.05259383
0.2793256,-0.02182652,0.08968429,-0.1901517,-0.1024851,0.1285032,-0.009155429,-0.04936047,-0.006533456,0.2513443,0.05062572
0.2753085,-0.02394071,0.09228531,-0.197637,-0.1061758,0.1284259,-0.01157997,-0.04670241,-0.009513965,0.258509,0.0490482
0.2711354,-0.02612665,0.09489112,-0.2050846,-0.1098653,0.1282966,-0.01397671,-0.0440712,-0.01246751,0.2656879,0.04788588
0.2668074,-0.02838435,0.09750041,-0.2124832,-0.1135531,0.1281064,-0.01634603,-0.0414666,-0.01539456,0.2728638,0.04715574
0.2623222,-0.0307111,0.1001146,-0.219825,-0.1171459,0.1278462,-0.01969896,-0.04207485,-0.01865608,0.2799836,0.05006387
0.2576812,-0.03310684,0.1027319,-0.2270938,-0.1207362,0.1275033,-0.02301584,-0.04267709,-0.02188774,0.2870643,0.05319902
0.2528864,-0.03557162,0.1053502,-0.2342768,-0.1243238,0.127065,-0.02629724,-0.04327335,-0.02508933,0.2940877,0.05651197
0.2479396,-0.03810517,0.1079673,-0.2413617,-0.1279083,0.1265185,-0.02954368,-0.04386361,-0.02826153,0.3010364,0.05996298
0.2428434,-0.04070759,0.1105807,-0.248336,-0.1314896,0.1258513,-0.03275478,-0.04444804,-0.03140477,0.3078941,0.06351979
0.2376141,-0.04337812,0.1131673,-0.2551986,-0.1347621,0.1250484,-0.02920681,-0.04221518,-0.03057812,0.3145222,0.05975099
0.232254,-0.04611664,0.1157248,-0.2619413,-0.1380312,0.1241263,-0.02569384,-0.04000641,-0.02975811,0.3210501,0.05609128
0.2267655,-0.04892314,0.1182512,-0.2685672,-0.1412971,0.1230991,-0.02221505,-0.0378214,-0.02894459,0.3274852,0.05255241
0.2211509,-0.05179756,0.120745,-0.2750795,-0.1445598,0.1219805,-0.01877063,-0.03565975,-0.02813777,0.3338346,0.04914965
0.2154123,-0.05473977,0.1232045,-0.2814814,-0.1478195,0.1207844,-0.01535997,-0.03352153,-0.02733747,0.3401048,0.04590163
0.209556,-0.05772901,0.1256424,-0.2878053,-0.150209,0.1195152,-0.01670797,-0.03693749,-0.02357155,0.3459459,0.04689512
0.2035838,-0.06076515,0.1280572,-0.294036,-0.1525961,0.1181761,-0.01804655,-0.0403174,-0.01984311,0.3517219,0.04842437
0.197497,-0.06384829,0.1304473,-0.3001876,-0.1549814,0.1167616,-0.01937589,-0.04366169,-0.01615173,0.3574424,0.05042467
0.1912971,-0.06697834,0.1328112,-0.3062744,-0.1573655,0.1152659,-0.0206964,-0.04697074,-0.01249749,0.3631172,0.05282782
0.1849847,-0.07015535,0.135147,-0.3123103,-0.159749,0.1136838,-0.02200795,-0.05024491,-0.008879325,0.3687567,0.05556747
0.1785529,-0.07337784,0.1374469,-0.3183137,-0.1619922,0.1120078,-0.02107209,-0.04570813,-0.009847761,0.3743139,0.05128591
0.1720023,-0.07664575,0.139709,-0.3242765,-0.1642352,0.110244,-0.02014404,-0.04121727,-0.01080744,0.379845,0.04713223
0.165334,-0.07995919,0.1419317,-0.330195,-0.1664779,0.1083966,-0.01922315,-0.03677179,-0.01175852,0.3853486,0.04312721
0.1585487,-0.08331792,0.1441135,-0.3360658,-0.1687202,0.1064698,-0.01831022,-0.03237139,-0.01270118,0.3908229,0.03930001
0.1516477,-0.08672221,0.1462529,-0.3418853,-0.1709619,0.1044676,-0.01740412,-0.02801583,-0.01363533,0.3962663,0.03568911
0.1446169,-0.09016044,0.1483491,-0.3476666,-0.1726687,0.1023864,-0.01695378,-0.02883601,-0.01804426,0.4014593,0.03800713
0.1374581,-0.09363267,0.1504009,-0.3533758,-0.1743744,0.1002355,-0.01650548,-0.02964976,-0.02240852,0.4066055,0.04066547
0.1301732,-0.0971388,0.1524068,-0.3589956,-0.1760783,0.09801657,-0.01605979,-0.03045685,-0.02672865,0.41169,0.0435885
0.1227643,-0.1006788,0.1543654,-0.3645091,-0.1777801,0.09573133,-0.01561599,-0.03125756,-0.031005,0.4166979,0.04671407
0.1152342,-0.1042526,0.1562756,-0.3698995,-0.1794793,0.09338147,-0.01517461,-0.03205189,-0.03523801,0.4216143,0.04999309
0.1075886,-0.1078429,0.1581221,-0.3751796,-0.1801351,0.09095175,-0.01016267,-0.0301936,-0.03895498,0.4260054,0.0503232
0.09983088,-0.1114497,0.1599042,-0.3803048,-0.1807872,0.0884788,-0.005197115,-0.02835861,-0.04263214,0.4302839,0.05146572
0.09196442,-0.1150727,0.1616215,-0.3852606,-0.1814352,0.08598241,-0.0002773916,-0.02654647,-0.0462699,0.4344392,0.05334507
0.08399305,-0.1187119,0.1632743,-0.3900328,-0.1820784,0.08348221,0.004596608,-0.02475694,-0.04986865,0.4384603,0.05586517
0.07592079,-0.1223671,0.1648628,-0.3946075,-0.1827164,0.08099762,0.009425413,-0.02298987,-0.05342877,0.4423358,0.05892373
0.0677644,-0.1260138,0.1664081,-0.3989937,-0.1823771,0.07853193,0.007334566,-0.02455784,-0.05184059,0.4456732,0.05783018
0.05952796,-0.129652,0.1679105,-0.4031736,-0.1820326,0.07609297,0.005262522,-0.02610816,-0.05026939,0.4488596,0.05688886
0.05121544,-0.1332817,0.1693706,-0.4071533,-0.1816835,0.07367251,0.003209002,-0.02764113,-0.04871523,0.4518964,0.05610261
0.04283068,-0.1369027,0.1707883,-0.4109389,-0.1813301,0.07126243,0.001173633,-0.02915676,-0.04717772,0.4547854,0.05547281
0.03437741,-0.140515,0.1721636,-0.4145364,-0.1809728,0.06885467,-0.0008441421,-0.03065543,-0.04565686,0.4575287,0.05500015
0.0258648,-0.1441106,0.1734948,-0.4179598,-0.1801734,0.06643417,-0.002256883,-0.02942891,-0.0429639,0.4599634,0.05212534
0.01729621,-0.1476891,0.1747818,-0.4212112,-0.1793711,0.06400261,-0.003656144,-0.02821326,-0.04029872,0.4622653,0.04932892
0.008674754,-0.1512508,0.1760241,-0.4243014,-0.1785662,0.06155464,-0.005042166,-0.02700851,-0.03766122,0.4644422,0.04661814
3.365334E-06,-0.1547956,0.1772213,-0.4272407,-0.1777591,0.05908494,-0.006414856,-0.02581446,-0.03505091,0.4665019,0.04400117
-0.008715242,-0.1583235,0.1783728,-0.4300396,-0.1769503,0.05658823,-0.00777396,-0.0246311,-0.0324675,0.4684525,0.04148812
-0.01748213,-0.1618193,0.1794776,-0.4327195,-0.1753942,0.05404681,-0.008989466,-0.02140988,-0.03155058,0.4700323,0.03917439
-0.02629481,-0.165283,0.1805349,-0.4352726,-0.1738368,0.05146844,-0.01019113,-0.01821998,-0.03064407,0.4715194,0.03707945
-0.03515088,-0.1687148,0.1815439,-0.4377028,-0.1722785,0.04884857,-0.01137906,-0.01506118,-0.02974754,0.4729162,0.03523121
-0.04404802,-0.1721146,0.1825036,-0.4400137,-0.1707193,0.04618271,-0.01255337,-0.01193279,-0.02886091,0.4742256,0.03365904
-0.05298394,-0.1754822,0.183413,-0.4422091,-0.1691596,0.04346636,-0.01371482,-0.008834825,-0.02798454,0.4754505,0.03239267
-0.06197869,-0.1788072,0.184267,-0.4442989,-0.1670788,0.04068581,-0.01378246,-0.008869969,-0.03359614,0.476416,0.03738092
-0.07102938,-0.1820895,0.1850644,-0.4462542,-0.1649975,0.03784994,-0.01384834,-0.008906236,-0.03915134,0.4772836,0.04247264
-0.08013272,-0.185329,0.1858042,-0.4480529,-0.1629155,0.03495853,-0.01391292,-0.00894365,-0.04465108,0.4780324,0.04761594
-0.08928496,-0.1885257,0.1864851,-0.4496731,-0.1608328,0.03201134,-0.01397577,-0.008982126,-0.05009566,0.4786417,0.05277856
-0.09848194,-0.1916797,0.1871062,-0.4510931,-0.1587493,0.02900816,-0.01403669,-0.009021538,-0.05548568,0.4790906,0.0579403
-0.1077099,-0.1947761,0.1876598,-0.4522975,-0.1558349,0.02593279,-0.01219722,-0.01043518,-0.05740625,0.479093,0.05960824
-0.1169642,-0.1978152,0.1881452,-0.4532714,-0.15292,0.02280835,-0.01037762,-0.01183718,-0.05930689,0.4789152,0.06136059
-0.12624,-0.2007968,0.1885614,-0.4540072,-0.1500045,0.01964213,-0.008577001,-0.01322785,-0.06118764,0.4785496,0.06318598
-0.1355324,-0.2037209,0.188908,-0.4544972,-0.1470886,0.01644136,-0.006796104,-0.01460702,-0.06304906,0.4779885,0.06507485
-0.1448361,-0.2065875,0.1891843,-0.4547338,-0.1441725,0.01321323,-0.005033727,-0.01597482,-0.06489083,0.4772243,0.06701756
-0.1541351,-0.2093848,0.1893866,-0.4547103,-0.1405936,0.009951506,-0.002211694,-0.01715831,-0.06316873,0.4760537,0.06549495
-0.1634242,-0.2121129,0.1895146,-0.454432,-0.1370147,0.006680865,0.0005801232,-0.01833345,-0.06146298,0.4746853,0.06414164
-0.1726986,-0.2147717,0.1895687,-0.4539055,-0.1334359,0.0034126,0.003341958,-0.01950038,-0.05977305,0.4731247,0.06296229
-0.1819536,-0.2173612,0.189549,-0.4531375,-0.1298573,0.0001578932,0.006074284,-0.02065878,-0.05809888,0.4713773,0.06196098
-0.1911843,-0.2198816,0.1894563,-0.4521347,-0.126279,-0.003072181,0.008777292,-0.021809,-0.0564407,0.4694481,0.06114103
-0.2003783,-0.2223152,0.1892964,-0.4508997,-0.1218767,-0.006282967,0.009952965,-0.0186858,-0.05328472,0.467123,0.05733656
-0.2095314,-0.2246623,0.1890702,-0.4494484,-0.1174748,-0.009453245,0.01111929,-0.01559568,-0.05015902,0.4646435,0.05369163
-0.2186395,-0.2269228,0.1887787,-0.4477939,-0.1130733,-0.01257832,0.01227606,-0.01253823,-0.0470636,0.4620207,0.05022839
-0.2276991,-0.2290968,0.1884228,-0.4459487,-0.1086722,-0.01565355,0.01342316,-0.009513179,-0.04399811,0.4592656,0.04697356
-0.2367066,-0.2311842,0.1880038,-0.4439254,-0.1042716,-0.01867437,0.01456098,-0.006520224,-0.04096246,0.4563892,0.04395974
-0.2456658,-0.2331629,0.187544,-0.441729,-0.09907551,-0.02165104,0.008351677,-0.006377565,-0.03955131,0.453221,0.04092347
-0.2545736,-0.2350332,0.187044,-0.4393722,-0.09388044,-0.02459366,0.002204583,-0.00623165,-0.03815492,0.4499626,0.03872327
-0.2634268,-0.2367949,0.1865037,-0.4368605,-0.08868684,-0.0275271,-0.003881391,-0.006082548,-0.03677329,0.4466209,0.03747449
-0.2722225,-0.2384484,0.1859227,-0.4341996,-0.08349524,-0.03047595,-0.009906465,-0.005930481,-0.03540624,0.4432037,0.03724125
-0.2809579,-0.2399935,0.1853,-0.431395,-0.07830611,-0.03346459,-0.01587141,-0.00577529,-0.03405382,0.4397196,0.03801208
-0.2896496,-0.2414378,0.1846058,-0.4284531,-0.07319173,-0.03651578,-0.01227565,-0.003915103,-0.03956868,0.4361909,0.04161371
-0.2982943,-0.2427812,0.1838393,-0.425351,-0.06808048,-0.0396164,-0.008714274,-0.002077672,-0.04502809,0.4325828,0.04591062
-0.3068883,-0.2440237,0.1829998,-0.4220665,-0.06297255,-0.04275214,-0.005186892,-0.0002626942,-0.05043334,0.4288746,0.05070005
-0.3154271,-0.2451654,0.1820872,-0.4185781,-0.05786815,-0.04590883,-0.001692791,0.001530055,-0.0557848,0.4250459,0.05583144
-0.3239063,-0.2462063,0.1811012,-0.4148643,-0.0527676,-0.04907248,0.001768574,0.003300761,-0.06108271,0.4210759,0.06119739
-0.3323014,-0.2471295,0.1800344,-0.410885,-0.04664774,-0.05224911,0.007482402,0.002891043,-0.05950864,0.4168122,0.06004684
-0.3406077,-0.2479351,0.1788875,-0.4066641,-0.04053184,-0.05539556,0.01313849,0.002478397,-0.05795079,0.4124162,0.05947316
-0.3488206,-0.2486231,0.1776617,-0.4022079,-0.03441963,-0.05848882,0.01873768,0.002062891,-0.05640864,0.4078931,0.05947513
-0.3569355,-0.2491936,0.1763587,-0.3975225,-0.02831082,-0.0615061,0.02428054,0.001644856,-0.0548824,0.4032477,0.06003605
-0.364948,-0.2496465,0.1749806,-0.3926143,-0.02220516,-0.06442485,0.02976753,0.001224128,-0.0533717,0.3984842,0.061124
-0.3728545,-0.2499649,0.1735578,-0.387478,-0.01562904,-0.06723107,0.02585496,-0.0003359704,-0.05185084,0.3935778,0.0579405
-0.3806506,-0.2501491,0.1720922,-0.3821304,-0.009056255,-0.06993195,0.0219801,-0.001877257,-0.05034612,0.3885822,0.05496709
-0.3883324,-0.2501991,0.1705856,-0.3765776,-0.002487168,-0.0725431,0.01814183,-0.003399922,-0.04885697,0.3835093,0.05222728
-0.3958959,-0.2501152,0.1690392,-0.3708256,0.004077882,-0.07507999,0.01434078,-0.0049043,-0.04738368,0.3783718,0.0497486
-0.4033373,-0.2498972,0.1674543,-0.3648803,0.01063859,-0.07755793,0.01057609,-0.006390463,-0.04592605,0.3731836,0.04755937
-0.4106555,-0.2495455,0.1658336,-0.3587485,0.0171589,-0.07999148,0.006476274,-0.004474425,-0.04626861,0.3679586,0.04693343
-0.4178468,-0.24906,0.1641775,-0.352428,0.02367409,-0.08239813,0.002418796,-0.002573695,-0.04660771,0.3627057,0.04674134
-0.4249075,-0.248441,0.1624862,-0.3459176,0.03018372,-0.08479462,-0.001596216,-0.0006882715,-0.0469437,0.3574355,0.04697587
-0.4318336,-0.2476884,0.1607595,-0.339216,0.0366873,-0.08719752,-0.00556934,0.001181999,-0.04727644,0.3521602,0.04761803
-0.4386214,-0.2468027,0.1589966,-0.3323219,0.04318434,-0.08962325,-0.009500956,0.003037305,-0.0476057,0.3468935,0.04863945
-0.445264,-0.2457908,0.1571718,-0.3252343,0.04967108,-0.09208802,-0.005433243,0.001612441,-0.04610058,0.3416501,0.04644765
-0.4517576,-0.2446527,0.1552846,-0.3179592,0.05615111,-0.09457514,-0.001407533,0.0001983511,-0.04461006,0.3364453,0.0446327
-0.4580988,-0.2433887,0.153335,-0.3105024,0.06262471,-0.09706801,0.002576593,-0.001205186,-0.0431345,0.3312941,0.04322819
-0.4642841,-0.2419987,0.1513235,-0.3028699,0.06909223,-0.09955022,0.006519832,-0.002598048,-0.04167376,0.3262118,0.04226062
-0.4703099,-0.2404829,0.1492507,-0.2950676,0.07555391,-0.1020055,0.01042237,-0.003980495,-0.04022715,0.321214,0.04174558
-0.4761777,-0.23883,0.1471261,-0.287085,0.08244152,-0.1044245,0.01153806,-0.003989445,-0.04072984,0.3164157,0.04252014
-0.4818839,-0.2370401,0.1449507,-0.278936,0.08932354,-0.1067958,0.01264276,-0.003999099,-0.0412274,0.311752,0.0433074
-0.4874253,-0.2351132,0.1427257,-0.2706185,0.09619977,-0.1091149,0.01373611,-0.004009374,-0.04171984,0.3072374,0.04410556
-0.4927984,-0.2330494,0.1404521,-0.2621306,0.1030701,-0.1113773,0.01481874,-0.004020302,-0.04220713,0.3028874,0.04491325
-0.4979998,-0.2308489,0.1381312,-0.2534703,0.1099343,-0.1135786,0.01589084,-0.004032027,-0.04268928,0.2987186,0.0457291
-0.5030113,-0.2285139,0.1357691,-0.2446391,0.1167081,-0.1157132,0.0155379,-0.002969167,-0.03855127,0.2947179,0.04167064
-0.5078297,-0.2260447,0.1333669,-0.2356506,0.1234761,-0.117784,0.01518923,-0.001917919,-0.03445452,0.2909478,0.03770285
-0.5124525,-0.2234411,0.130926,-0.2265216,0.1302389,-0.1197924,0.01484442,-0.0008782403,-0.0303987,0.2874446,0.03384094
-0.5168774,-0.2207035,0.1284475,-0.2172685,0.1369971,-0.1217402,0.01450383,0.000150135,-0.02638265,0.2842437,0.03010694
-0.5211022,-0.2178317,0.1259325,-0.2079079,0.1437513,-0.1236289,0.01416706,0.001167282,-0.02240693,0.2813792,0.02653561
-0.5251545,-0.2148267,0.1233803,-0.1984636,0.1503318,-0.1254579,0.01429208,0.0001351858,-0.02753759,0.2787958,0.0310258
-0.5290318,-0.2116884,0.1207919,-0.1889072,0.1569078,-0.1272286,0.01441541,-0.0008850793,-0.03261666,0.2765739,0.03567119
-0.5327312,-0.208417,0.1181686,-0.1792179,0.1634785,-0.1289405,0.01453667,-0.001893782,-0.03764551,0.2747179,0.04039908
-0.5362496,-0.2050126,0.1155115,-0.1693752,0.1700428,-0.1305928,0.01465637,-0.002891001,-0.04262513,0.2732343,0.04516711
-0.5395833,-0.2014751,0.1128219,-0.1593587,0.1765995,-0.1321849,0.01477402,-0.003877001,-0.04755456,0.2721313,0.04994736
-0.5426986,-0.1978187,0.1100904,-0.1491666,0.182775,-0.1337118,0.01833397,-0.005256439,-0.04239975,0.2711756,0.04649197
-0.5455922,-0.1940433,0.1073188,-0.1388018,0.1889428,-0.1351631,0.02185642,-0.006626917,-0.03729604,0.2706186,0.04373344
-0.5482613,-0.190149,0.104509,-0.1282851,0.195104,-0.1365243,0.02534229,-0.007988524,-0.03224425,0.2704839,0.04178205
-0.5507034,-0.186136,0.1016631,-0.117637,0.2012597,-0.1377807,0.02879163,-0.00934116,-0.02724244,0.2707904,0.04072304
-0.5529164,-0.1820043,0.09878367,-0.1068779,0.2074108,-0.1389182,0.03220443,-0.01068514,-0.02229045,0.2715518,0.04059756
-0.5548941,-0.1777513,0.09589247,-0.09603171,0.2134808,-0.1399218,0.02952916,-0.009946698,-0.01639348,0.2727165,0.03520872
-0.5566354,-0.1733769,0.09299188,-0.08511861,0.2195485,-0.1408034,0.02687949,-0.009218058,-0.01055587,0.274358,0.03031346
-0.5581395,-0.1688813,0.09008407,-0.07416233,0.2256147,-0.1415738,0.02425534,-0.00849931,-0.004776754,0.2764872,0.02614149
-0.5594063,-0.1642644,0.08717093,-0.06318638,0.2316806,-0.1422438,0.021656,-0.007790205,0.0009448,0.2791088,0.02303393
-0.560436,-0.1595263,0.08425423,-0.05221406,0.2377474,-0.1428241,0.01908245,-0.00709072,0.006609504,0.2822213,0.02140336
-0.5612535,-0.1546807,0.08134324,-0.04131676,0.2428957,-0.1433196,0.01385518,-0.007495734,0.004781766,0.2850367,0.01646261
-0.5618594,-0.1497274,0.07843897,-0.03043861,0.2480453,-0.1437575,0.008680544,-0.007896697,0.002972321,0.288304,0.01210555
-0.5622535,-0.1446666,0.07554202,-0.0195723,0.2531958,-0.1441586,0.003557978,-0.008293765,0.001179583,0.2920152,0.009101492
-0.562436,-0.1394983,0.07265252,-0.008710557,0.2583466,-0.1445435,-0.00151316,-0.008686861,-0.0005960219,0.2961616,0.008837786
-0.562407,-0.1342225,0.06977027,0.002153794,0.2634973,-0.1449327,-0.006533107,-0.009075914,-0.002354809,0.300734,0.01142798
-0.5621718,-0.1288613,0.06687065,0.01298471,0.2678237,-0.1453416,-0.003756774,-0.01122669,-0.00532722,0.3049956,0.01298195
-0.5617301,-0.1234145,0.0639535,0.02383735,0.2721488,-0.1457632,-0.001007481,-0.0133566,-0.008269195,0.3096452,0.01574145
-0.5610811,-0.1178822,0.06101889,0.03472362,0.2764723,-0.1461861,0.001714764,-0.0154657,-0.01118076,0.3146633,0.01916084
-0.5602238,-0.1122645,0.05806711,0.0456553,0.2807933,-0.1465987,0.004410114,-0.01755409,-0.01406194,0.320032,0.02292015
-0.5591567,-0.1065613,0.05509864,0.05664403,0.2851115,-0.1469899,0.007078973,-0.01962219,-0.01691404,0.3257348,0.02685567
-0.5578638,-0.1007875,0.05209799,0.06767767,0.2889839,-0.1473458,0.01517737,-0.02117973,-0.01480179,0.331365,0.02996709
-0.5563439,-0.09494317,0.04906673,0.07877126,0.2928534,-0.1476361,0.02319354,-0.02272486,-0.01270817,0.3372899,0.03486914
-0.5545958,-0.08902814,0.04600705,0.08991639,0.2967206,-0.1478283,0.03112839,-0.02425737,-0.01063191,0.3434841,0.04087094
-0.5526189,-0.08304227,0.04292178,0.1011047,0.3005861,-0.1478901,0.03898236,-0.02577761,-0.008573442,0.3499224,0.04751435
-0.5504125,-0.07698568,0.03981445,0.1123278,0.3044503,-0.1477896,0.04675665,-0.02728556,-0.006532986,0.35658,0.05452858
-0.5479654,-0.07085501,0.03672893,0.123563,0.3080474,-0.1474946,0.04152159,-0.02685217,-0.001419325,0.3632019,0.04946813
-0.5452778,-0.06465038,0.03366859,0.1348041,0.3116444,-0.147027,0.0363361,-0.02642714,0.003641009,0.3700153,0.0450773
-0.5423502,-0.0583718,0.03063628,0.1460307,0.3152425,-0.1464077,0.03119988,-0.02601045,0.008648561,0.377012,0.0415304
-0.5391835,-0.05201928,0.02763451,0.1572226,0.3188426,-0.1456576,0.02611197,-0.02560193,0.01360383,0.3841818,0.0390174
-0.5357788,-0.04559281,0.02466534,0.1683599,0.3224456,-0.144797,0.02107264,-0.02520127,0.01850689,0.391513,0.03770497
-0.5321513,-0.03911893,0.02173156,0.1793466,0.3246334,-0.1438477,0.01611965,-0.02147404,0.01860123,0.3977992,0.03266471
-0.5283027,-0.03259767,0.01883436,0.190259,0.3268252,-0.1428295,0.01121493,-0.01778597,0.01869339,0.4042443,0.02813464
-0.5242302,-0.0260161,0.0159565,0.201299,0.3296618,-0.1426669,0.006357834,-0.0141367,0.01878336,0.411767,0.0243533
-0.5199355,-0.01937424,0.01309837,0.2122639,0.3325024,-0.142476,0.001547845,-0.01052552,0.01887172,0.4194201,0.02166389
-0.5154201,-0.01267201,0.01025997,0.2231536,0.3353468,-0.1422767,-0.003215416,-0.00695252,0.01895853,0.4271975,0.02044755
-0.5107067,-0.00593558,0.007418144,0.2339077,0.3370402,-0.1420906,-0.001427277,-0.01168646,0.01449162,0.4341643,0.01867131
-0.5057961,0.0008352101,0.004572853,0.2446044,0.3387365,-0.1419078,0.0003455184,-0.01637277,0.01007006,0.4412614,0.0192248
-0.500689,0.007640243,0.001724299,0.255261,0.3404349,-0.1417203,0.002103097,-0.02101179,0.005693221,0.448485,0.02187078
-0.4953856,0.01447956,-0.001127224,0.2658949,0.3421345,-0.1415202,0.003845439,-0.02560405,0.001360462,0.4558334,0.02592693
-0.489886,0.0213533,-0.003981277,0.2765233,0.3438343,-0.1412996,0.005572361,-0.03015008,-0.002928259,0.4633063,0.03080022
-0.4841664,0.02824003,-0.006844878,0.2871207,0.344708,-0.1410524,0.01038538,-0.02990614,-0.0003134207,0.470274,0.03165961
-0.4782267,0.0351398,-0.009716928,0.2977191,0.3455815,-0.1407581,0.01514898,-0.02966531,0.002278446,0.4773637,0.03338732
-0.4720672,0.04205263,-0.01259595,0.3083083,0.3464554,-0.1403981,0.01986337,-0.02942734,0.004847355,0.4845585,0.03583321
-0.4656885,0.04897876,-0.01548016,0.318878,0.34733,-0.1399537,0.02452852,-0.02919244,0.007393196,0.4918418,0.03883949
-0.459091,0.05591807,-0.01836731,0.3294181,0.3482059,-0.1394066,0.02914611,-0.02896033,0.009916696,0.4991972,0.04226745
-0.4522535,0.06285964,-0.02122707,0.3398806,0.3483338,-0.1387417,0.02402426,-0.03274072,0.0209767,0.5060678,0.04570713
-0.4451779,0.06980345,-0.02405749,0.3502601,0.3484656,-0.1379759,0.01894815,-0.03649089,0.03192123,0.5129793,0.05205365
-0.437867,0.07674973,-0.02685705,0.3605134,0.3486032,-0.1371283,0.01391717,-0.04021089,0.04275081,0.5199022,0.06031778
-0.4303246,0.0836987,-0.02962458,0.3705978,0.3487489,-0.1362183,0.008931191,-0.04390079,0.05346748,0.5268054,0.06975541
-0.4225551,0.09065059,-0.03235926,0.3804711,0.3489045,-0.1352647,0.003989765,-0.04756115,0.06407189,0.5336564,0.07989486
-0.4145861,0.09757879,-0.03506424,0.3900247,0.3476387,-0.1342948,0.001144152,-0.04330684,0.06586597,0.5394506,0.07883602
-0.4064227,0.1044835,-0.03773937,0.3993202,0.3463848,-0.1333126,-0.001680075,-0.03909873,0.06763932,0.5451708,0.07814481
-0.3980703,0.1113651,-0.04038474,0.4083507,0.3451425,-0.1323302,-0.004483293,-0.03493641,0.0693928,0.550804,0.07782039
-0.3895346,0.1182237,-0.04300068,0.4171096,0.3439121,-0.1313594,-0.007265034,-0.03081948,0.07112679,0.5563374,0.07785654
-0.380821,0.1250595,-0.04558777,0.4255901,0.3426934,-0.1304119,-0.01002548,-0.02674746,0.07284086,0.5617588,0.07824147
-0.3719625,0.1318395,-0.0481722,0.4337255,0.3399661,-0.1295075,-0.005237541,-0.02970373,0.0676962,0.566098,0.07411153
-0.3629641,0.1385636,-0.05075413,0.4415979,0.337249,-0.1286189,-0.0004901208,-0.03262454,0.0626063,0.5703406,0.07059851
-0.3538304,0.1452321,-0.05333338,0.4492272,0.334541,-0.1277274,0.004216424,-0.03551032,0.05756995,0.5744885,0.06777212
-0.3445657,0.1518451,-0.05590936,0.4566326,0.3318411,-0.1268146,0.008882617,-0.0383614,0.05258758,0.5785445,0.0656959
-0.3351738,0.1584026,-0.05848118,0.4638334,0.3291482,-0.1258622,0.01350864,-0.04117819,0.04765756,0.5825129,0.0644156
-0.3256626,0.1648883,-0.0610468,0.4708195,0.3255996,-0.124857,0.01769967,-0.04500641,0.04181896,0.585897,0.06393497
-0.3160351,0.1713021,-0.06360461,0.4776432,0.3220559,-0.1237777,0.02185748,-0.04879081,0.03604116,0.5892231,0.0644768
-0.3062938,0.1776441,-0.06615271,0.4843266,0.3185162,-0.122608,0.02598192,-0.05253188,0.03032328,0.5925011,0.06598606
-0.2964409,0.1839145,-0.06868888,0.4908917,0.3149796,-0.1213316,0.03007276,-0.05623006,0.02466483,0.5957416,0.06837064
-0.286478,0.1901131,-0.07121056,0.4973599,0.311445,-0.1199323,0.03413153,-0.05988595,0.01906585,0.5989563,0.07151779
-0.2763817,0.1962235,-0.07370722,0.5037286,0.3071271,-0.118401,0.03570165,-0.06251309,0.02163369,0.6017377,0.07516988
-0.2661536,0.2022458,-0.07617591,0.510012,0.3028104,-0.1167252,0.03725383,-0.06511502,0.02417602,0.604509,0.07881811
-0.2557957,0.2081801,-0.07861357,0.5162,0.2984952,-0.1148987,0.0387883,-0.06769215,0.02669273,0.607259,0.08245763
-0.2453102,0.2140263,-0.08101697,0.5222827,0.2941815,-0.1129155,0.04030555,-0.07024455,0.02918469,0.6099769,0.08608473
-0.2346993,0.2197846,-0.08338279,0.5282502,0.2898692,-0.1107697,0.04180551,-0.07277257,0.03165162,0.6126519,0.089696
-0.223957,0.2254351,-0.08569224,0.5340611,0.2844315,-0.1084696,0.03870203,-0.06999856,0.035957,0.6147261,0.08769579
-0.2130862,0.2309778,-0.08794227,0.5397312,0.2789956,-0.1060142,0.03562178,-0.06725772,0.04021696,0.6167555,0.08608087
-0.2020903,0.2364127,-0.0901301,0.545244,0.273562,-0.1034159,0.03256454,-0.06454978,0.04443247,0.6187262,0.08486088
-0.1909728,0.2417399,-0.09225316,0.5505835,0.268131,-0.1006868,0.02953003,-0.06187454,0.04860357,0.6206241,0.0840404
-0.1797379,0.2469595,-0.09430914,0.5557337,0.2627028,-0.09783903,0.02651812,-0.05923115,0.05273061,0.6224349,0.08361852
-0.1683941,0.2520604,-0.09627911,0.560661,0.2565109,-0.09489686,0.01752456,-0.06034014,0.05633164,0.623814,0.08438777
-0.1569459,0.2570427,-0.09816187,0.5653701,0.2503228,-0.09188277,0.008617687,-0.0614494,0.05988557,0.6250978,0.08623558
-0.1453982,0.2619063,-0.09995688,0.5698474,0.2441391,-0.08883081,-0.0002024465,-0.06255876,0.06339303,0.6262754,0.08906354
-0.133756,0.2666515,-0.1016643,0.5740795,0.2379604,-0.08577478,-0.008938042,-0.06366815,0.06685426,0.6273354,0.09275243
-0.1220246,0.2712781,-0.103285,0.5780532,0.231787,-0.08274814,-0.01758891,-0.06477737,0.0702702,0.6282658,0.09717704
-0.110231,0.2757506,-0.1048428,0.5817273,0.2239629,-0.07981099,-0.0186847,-0.0629137,0.06619896,0.6284391,0.09321778
-0.09838007,0.2800688,-0.1063391,0.5851478,0.2161439,-0.07694047,-0.019767,-0.06107161,0.06216634,0.6285189,0.08935956
-0.08647646,0.2842328,-0.1077756,0.5883302,0.2083297,-0.07414107,-0.0208359,-0.05925078,0.05817217,0.6285146,0.08560836
-0.07452454,0.2882426,-0.1091536,0.5912897,0.2005197,-0.0714172,-0.02189134,-0.05745102,0.05421576,0.6284362,0.08197072
-0.06252837,0.2920982,-0.110475,0.5940414,0.1927135,-0.06877319,-0.02293375,-0.05567209,0.05029719,0.6282941,0.07845474
-0.05047475,0.2957755,-0.1117624,0.5965904,0.1840131,-0.06622607,-0.01773322,-0.06033022,0.05348455,0.627827,0.0825518
-0.03836774,0.2992747,-0.113017,0.5989354,0.1753158,-0.06374315,-0.01258356,-0.06493523,0.05664786,0.6273136,0.08708564
-0.02621172,0.3025957,-0.1142395,0.6010643,0.1666212,-0.0613052,-0.007483884,-0.0694875,0.05978731,0.6267369,0.09197307
-0.01401123,0.3057387,-0.1154301,0.6029651,0.1579287,-0.05889321,-0.002434445,-0.07398795,0.06290291,0.6260805,0.09714381
-0.001771075,0.308704,-0.1165889,0.604626,0.1492381,-0.05648842,0.002565332,-0.07843687,0.06599518,0.6253284,0.1025392
0.01050802,0.3114844,-0.1176969,0.6060324,0.1400117,-0.05407962,0.002074563,-0.07516877,0.06879038,0.6243421,0.1019155
0.02282071,0.3140801,-0.1187539,0.6071774,0.1307864,-0.05166184,0.001580718,-0.07193419,0.07155701,0.6232483,0.1014763
0.03516147,0.3164913,-0.1197598,0.6080508,0.1215618,-0.04923737,0.001082703,-0.06873268,0.0742953,0.6220348,0.1012183
0.04752453,0.3187179,-0.1207146,0.6086425,0.1123375,-0.0468085,0.0005813368,-0.06556397,0.07700561,0.6206903,0.1011377
0.05990396,0.32076,-0.1216181,0.6089424,0.1031131,-0.04437748,7.637862E-05,-0.06242782,0.07968823,0.6192032,0.1012297
0.0722743,0.3226019,-0.1224728,0.6089429,0.09305216,-0.04195801,-0.0002154008,-0.0650721,0.07727926,0.6174388,0.1010273
0.08462983,0.3242437,-0.1232787,0.6086521,0.08299024,-0.03954015,-0.0004971018,-0.06769025,0.07489378,0.6155552,0.1009519
0.09696496,0.3256852,-0.1240358,0.6080785,0.07292698,-0.03712538,-0.0007686251,-0.07028267,0.07253212,0.6135602,0.1010008
0.1092743,0.3269265,-0.1247443,0.6072311,0.06286205,-0.03471513,-0.001030421,-0.07284953,0.07019374,0.6114625,0.1011695
0.1215527,0.3279673,-0.1254044,0.6061183,0.05279513,-0.03231084,-0.001282713,-0.07539123,0.0678782,0.6092706,0.1014541
0.1338021,0.3287953,-0.1260227,0.6047537,0.04220483,-0.02992098,0.0007567213,-0.07590163,0.06746247,0.6069626,0.101552
0.1460177,0.3294103,-0.1265993,0.6031346,0.03161182,-0.02753129,0.002776845,-0.07640413,0.06705416,0.6045896,0.1016935
0.1581944,0.3298123,-0.1271339,0.6012625,0.02101572,-0.02513468,0.004777892,-0.07689897,0.06665299,0.6021544,0.1018769
0.1703271,0.3300013,-0.1276262,0.5991386,0.01041608,-0.0227241,0.006760456,-0.07738598,0.06625873,0.5996599,0.1021005
0.1824109,0.3299772,-0.1280758,0.5967646,-0.0001875162,-0.02029261,0.008724322,-0.07786564,0.06587116,0.5971095,0.102363
0.1944341,0.3297361,-0.1284771,0.5941461,-0.01106486,-0.01783707,0.009204968,-0.07583378,0.06268378,0.5945168,0.09881674
0.206392,0.3292779,-0.1288295,0.5912911,-0.0219467,-0.01535224,0.009682885,-0.07382105,0.05952907,0.5918974,0.09532584
0.2182802,0.3286024,-0.1291325,0.5882113,-0.03283313,-0.01283656,0.01015839,-0.07182728,0.05640716,0.5892668,0.09189189
0.2300945,0.3277097,-0.1293853,0.5849183,-0.04372424,-0.01028843,0.010631,-0.06985233,0.05331728,0.5866405,0.08851609
0.241831,0.3265994,-0.1295874,0.5814237,-0.05462004,-0.007706251,0.01110168,-0.06789595,0.05025985,0.5840344,0.0852007
0.2534907,0.3252695,-0.1297259,0.5777439,-0.06574509,-0.005091717,0.007231288,-0.07104263,0.0498859,0.5814949,0.08710884
0.2650698,0.3237197,-0.1298004,0.5738752,-0.07687478,-0.002456416,0.003403828,-0.0741616,0.04951002,0.5790066,0.08923436
0.2765646,0.3219499,-0.1298111,0.569819,-0.08800903,0.0001849206,-0.0003820788,-0.07725295,0.04913159,0.5765755,0.09155369
0.2879714,0.3199601,-0.1297581,0.5655764,-0.09914783,0.002817696,-0.004126449,-0.08031717,0.04875144,0.5742081,0.09404562
0.2992865,0.3177499,-0.129642,0.5611488,-0.1102911,0.005427454,-0.007829658,-0.08335441,0.04836957,0.5719104,0.09668959
0.310515,0.3153147,-0.1294699,0.5565412,-0.1215819,0.007997783,-0.009091984,-0.08048894,0.04959092,0.569723,0.09497575
0.3216532,0.3126543,-0.1292428,0.5517457,-0.1328775,0.01052611,-0.01034611,-0.0776531,0.05079757,0.5676183,0.09336723
0.3326971,0.3097685,-0.1289615,0.546758,-0.1441779,0.0130078,-0.01159261,-0.07484674,0.05198952,0.5655977,0.09186585
0.3436428,0.3066574,-0.1286271,0.5415739,-0.1554835,0.01543823,-0.01283117,-0.07206944,0.0531671,0.5636628,0.09047311
0.3544862,0.3033209,-0.1282407,0.5361893,-0.1667945,0.01781285,-0.01406209,-0.06932084,0.05433036,0.5618156,0.0891903
0.3652178,0.2997574,-0.1278127,0.5305996,-0.1780947,0.02012736,-0.01244525,-0.06805322,0.05408768,0.5600525,0.08781573
0.3758336,0.2959669,-0.1273439,0.5248063,-0.1894009,0.0223874,-0.01084541,-0.06679662,0.0538495,0.5583866,0.08648226
0.3863297,0.2919492,-0.1268353,0.5188104,-0.2007135,0.02459876,-0.009262583,-0.06555107,0.05361545,0.5568261,0.08519012
0.3967018,0.2877043,-0.1262878,0.512613,-0.2120327,0.02676722,-0.007696841,-0.0643162,0.05338575,0.5553795,0.08393958
0.4069462,0.283232,-0.1257021,0.506215,-0.2233588,0.02889847,-0.006147726,-0.06309213,0.05315994,0.5540558,0.08273083
0.4170521,0.2785453,-0.1250688,0.499597,-0.23416,0.03100456,-0.008030518,-0.06591506,0.05180554,0.5526204,0.08422054
0.4270158,0.273644,-0.1243888,0.4927837,-0.2449684,0.03307135,-0.009889459,-0.06871198,0.05046266,0.5513067,0.08582318
0.4368335,0.268528,-0.1236631,0.4857801,-0.2557837,0.03509129,-0.01172516,-0.07148305,0.04913113,0.5501264,0.08752813
0.4465014,0.2631971,-0.1228928,0.4785911,-0.2666061,0.03705687,-0.0135381,-0.07422852,0.0478111,0.5490915,0.08932555
0.4560161,0.2576512,-0.1220794,0.4712215,-0.2774352,0.03896068,-0.01532846,-0.07694858,0.04650241,0.5482134,0.09120592
0.4653833,0.2518938,-0.1212288,0.4636644,-0.2879971,0.04079827,-0.01525248,-0.07418986,0.04710605,0.5473495,0.08919504
0.4745993,0.2459252,-0.1203425,0.4559292,-0.298566,0.04256711,-0.01518057,-0.0714587,0.04770337,0.546649,0.08724912
0.4836607,0.2397449,-0.1194218,0.4480141,-0.3091424,0.04426766,-0.01511277,-0.06875444,0.04829396,0.5461183,0.08536906
0.4925637,0.2333529,-0.1184681,0.4399169,-0.3197263,0.04590036,-0.01504915,-0.06607707,0.04887803,0.5457643,0.08355667
0.5013046,0.2267491,-0.1174827,0.4316358,-0.3303182,0.04746568,-0.01498967,-0.06342617,0.04945531,0.5455938,0.08181319
0.5098764,0.2199436,-0.1164745,0.4231403,-0.3403256,0.04896924,-0.01268043,-0.06521981,0.05017438,0.5452222,0.08325794
0.5182756,0.2129362,-0.1154445,0.4144556,-0.3503416,0.05041369,-0.01039343,-0.06699307,0.05088953,0.5450268,0.08476932
0.5264981,0.2057268,-0.1143936,0.405579,-0.3603668,0.05180699,-0.008128751,-0.06874617,0.05160059,0.5450161,0.0863408
0.5345402,0.1983152,-0.1133227,0.396508,-0.3704014,0.053157,-0.005885582,-0.07047933,0.05230823,0.5451986,0.08796662
0.542398,0.1907012,-0.1122324,0.3872399,-0.380446,0.05447147,-0.003664265,-0.07219274,0.05301148,0.5455832,0.08964059
0.5500618,0.1829015,-0.1111144,0.3777328,-0.3897622,0.05576367,-0.004084099,-0.06976997,0.0512149,0.5456246,0.0866458
0.5575277,0.174916,-0.1099695,0.3680319,-0.3990884,0.05702652,-0.004499647,-0.06737188,0.049436,0.5458673,0.08368474
0.564792,0.1667443,-0.1087981,0.3581443,-0.4084248,0.0582587,-0.004911382,-0.06499852,0.04767377,0.5463261,0.08075716
0.5718514,0.1583864,-0.1076011,0.3480765,-0.417771,0.05945892,-0.005319023,-0.06264932,0.04592792,0.5470148,0.07786272
0.5787022,0.1498419,-0.1063791,0.3378351,-0.4271268,0.06062591,-0.005722241,-0.06032429,0.04419935,0.5479465,0.07500231
0.5853283,0.1411271,-0.1051338,0.3273798,-0.4356832,0.06176391,-0.005913723,-0.06140826,0.03940345,0.5484635,0.0732023
0.5917273,0.1322418,-0.1038659,0.3167749,-0.4442482,0.06286617,-0.006096667,-0.06248218,0.03465477,0.5492312,0.07170875
0.5978963,0.1231859,-0.1025762,0.3060383,-0.4528208,0.0639316,-0.006271081,-0.06354597,0.02995416,0.5502666,0.07053133
0.6038334,0.113959,-0.1012656,0.2951876,-0.4614,0.06495915,-0.006437241,-0.06459999,0.02530044,0.5515844,0.06967574
0.6095367,0.1045612,-0.09993477,0.2842404,-0.4699848,0.06594781,-0.006595267,-0.06564407,0.02069275,0.5531974,0.06914356
0.6150107,0.0950149,-0.09859042,0.2731397,-0.4773597,0.06690361,-0.004673145,-0.06327821,0.01778744,0.554034,0.06589662
0.6202542,0.08532019,-0.09723313,0.2619703,-0.4847387,0.06782704,-0.002768023,-0.06093571,0.01491317,0.5551581,0.06279511
0.625266,0.07547678,-0.09586333,0.2507433,-0.4921211,0.06872578,-0.0008785882,-0.05861622,0.01207016,0.5565776,0.0598525
0.6300453,0.06548484,-0.09448133,0.2394695,-0.4995063,0.06960745,0.0009941187,-0.05631951,0.009257177,0.5582986,0.05708389
0.6345915,0.05534425,-0.09308732,0.2281595,-0.5068938,0.07047963,0.002851077,-0.05404546,0.006474552,0.5603262,0.05450652
0.6389097,0.04508798,-0.09166984,0.2167275,-0.512739,0.071358,0.0009180381,-0.05402678,0.006694157,0.5612166,0.05444766
0.6429994,0.03471604,-0.09022912,0.2052689,-0.5185859,0.07222698,-0.0009958547,-0.05400835,0.00690995,0.5623907,0.0544577
0.6468601,0.02422838,-0.08876559,0.193783,-0.5244343,0.07307926,-0.002891369,-0.05399049,0.007120984,0.5638473,0.05453478
0.6504911,0.01362503,-0.08727978,0.1822688,-0.5302845,0.07390758,-0.004768372,-0.05397308,0.007327719,0.5655845,0.05467656
0.6538919,0.002905816,-0.08577235,0.1707256,-0.5361363,0.07470478,-0.00662659,-0.05395613,0.007530282,0.5676004,0.05488061
0.6570684,-0.007911891,-0.08424549,0.1590961,-0.5410928,0.07546791,-0.007787024,-0.04905941,0.00915904,0.5690241,0.05051091
0.6600198,-0.01882821,-0.08270006,0.1474307,-0.5460514,0.07618932,-0.008938563,-0.04421155,0.01076977,0.5707126,0.04637399
0.6627451,-0.02984314,-0.08113699,0.1357233,-0.5510126,0.07686574,-0.01008104,-0.0394122,0.01236221,0.572664,0.04251792
0.6652434,-0.04095682,-0.07955727,0.1239679,-0.5559766,0.07749394,-0.01121417,-0.03466085,0.01393725,0.5748768,0.03900485
0.6675134,-0.05216924,-0.07796197,0.1121587,-0.5609438,0.07807069,-0.01233853,-0.02995686,0.01549429,0.5773495,0.03591276
0.6695503,-0.06344755,-0.07634302,0.1001903,-0.5643739,0.07859804,-0.01663572,-0.03035214,0.01762432,0.5785617,0.0388409
0.6713526,-0.07479189,-0.07470198,0.08815362,-0.5678082,0.0790536,-0.02089117,-0.03074407,0.01973072,0.5800229,0.04208254
0.6729187,-0.08620232,-0.07304075,0.07604039,-0.5712472,0.07942079,-0.02510528,-0.03113306,0.02181373,0.5817329,0.04555635
0.6742468,-0.09767894,-0.07136156,0.06384268,-0.5746914,0.07968321,-0.02927811,-0.03151885,0.02387408,0.5836913,0.04919977
0.6753349,-0.1092219,-0.06966692,0.0515526,-0.5781416,0.0798246,-0.03341017,-0.03190164,0.02591123,0.5858987,0.05296552
0.6761528,-0.1208102,-0.06798721,0.03907479,-0.5802841,0.07982976,-0.02829922,-0.02724987,0.01809684,0.5870513,0.04325386
0.6766993,-0.132444,-0.06632464,0.02652662,-0.5824313,0.07971787,-0.02323649,-0.0226471,0.01036052,0.5884597,0.03406121
0.6769738,-0.1441233,-0.06468101,0.01393819,-0.5845812,0.07950976,-0.01822178,-0.018093,0.002702583,0.5901282,0.02582042
0.6769762,-0.1558481,-0.06305766,0.001339311,-0.5867319,0.07922613,-0.01325485,-0.01358702,-0.004879394,0.5920581,0.01959864
0.6767071,-0.1676184,-0.06145557,-0.01124056,-0.5888813,0.07888743,-0.008335305,-0.009128431,-0.01238453,0.5942481,0.01749806
0.6761878,-0.1793975,-0.0598777,-0.02389937,-0.5891287,0.07851157,-0.002847685,-0.008419983,-0.01165944,0.5948175,0.01466111
0.6754187,-0.1911855,-0.05832409,-0.03651238,-0.589373,0.07812232,0.002585606,-0.007719904,-0.01093966,0.5956482,0.01363666
0.6744009,-0.202982,-0.05679447,-0.04908242,-0.5896145,0.0777412,0.007964452,-0.007028033,-0.01022662,0.5967395,0.01474481
0.6731352,-0.2147871,-0.05528808,-0.0616123,-0.5898532,0.0773895,0.01328974,-0.00634429,-0.009520082,0.5980903,0.01753565
0.6716222,-0.2266006,-0.05380372,-0.07410479,-0.5900894,0.07708831,0.0185619,-0.005668555,-0.008819513,0.5996996,0.02131808
0.6698505,-0.2383778,-0.05231077,-0.08668729,-0.5884322,0.07685751,0.01417217,-0.007303008,-0.01076971,0.5997285,0.01923983
0.667821,-0.2501184,-0.05080832,-0.09922711,-0.5867722,0.07668097,0.009826127,-0.008919607,-0.01270116,0.600023,0.01836932
0.6655347,-0.2618225,-0.04929573,-0.1117166,-0.5851089,0.07654104,0.0055238,-0.01051853,-0.01461381,0.600576,0.01883388
0.662993,-0.2734901,-0.04777276,-0.1241482,-0.5834419,0.07642027,0.001264157,-0.01210006,-0.01650953,0.6013795,0.02050791
0.6601971,-0.285121,-0.04623951,-0.1365143,-0.5817705,0.0763014,-0.002953178,-0.0136642,-0.01838681,0.6024243,0.02309775
0.6571409,-0.2966857,-0.04471508,-0.1489159,-0.5784153,0.07616727,-0.0008011683,-0.01034898,-0.02314008,0.6021143,0.02536152
0.6538265,-0.308184,-0.04319956,-0.1612249,-0.5750542,0.07602729,0.001331549,-0.007067716,-0.02784584,0.6020473,0.02875963
0.6502561,-0.3196156,-0.04169279,-0.1734227,-0.571686,0.07589083,0.003445508,-0.003820318,-0.03250415,0.6022124,0.03290875
0.6464325,-0.3309805,-0.04019446,-0.1854905,-0.5683097,0.07576718,0.00554081,-0.0006065273,-0.03711551,0.6025971,0.03753171
0.6423588,-0.3422784,-0.03870403,-0.19741,-0.564924,0.07566553,0.00761752,0.002574068,-0.0416803,0.6031875,0.04244879
0.638055,-0.3534752,-0.0372126,-0.2092633,-0.5598881,0.07559542,0.006933212,0.00495618,-0.03991951,0.6024786,0.04081912
0.6335244,-0.3645708,-0.03571956,-0.2209557,-0.5548424,0.07555446,0.006257833,0.007314811,-0.03817599,0.60198,0.03937097
0.6287699,-0.3755651,-0.03422439,-0.2324943,-0.5497874,0.0755405,0.005591205,0.009650081,-0.03644892,0.6016861,0.03811705
0.6237943,-0.3864577,-0.03272664,-0.2438859,-0.5447237,0.07555138,0.004932943,0.01196241,-0.03473902,0.6015915,0.03707064
0.6186004,-0.3972487,-0.03122586,-0.2551374,-0.5396519,0.07558496,0.004283279,0.01425178,-0.03304665,0.6016913,0.0362428
0.6131833,-0.4079019,-0.02971292,-0.2663528,-0.5328857,0.07564065,0.0007137569,0.0150165,-0.03288539,0.6005269,0.03615873
0.6075456,-0.4184171,-0.0281878,-0.2774344,-0.5261118,0.07570273,-0.002819706,0.01577603,-0.03272492,0.5995786,0.03643836
0.6016899,-0.4287943,-0.02665077,-0.288383,-0.5193304,0.07575697,-0.006317341,0.01653031,-0.0325647,0.5988389,0.03706237
0.5956188,-0.4390332,-0.02510238,-0.2991991,-0.5125416,0.0757893,-0.009779514,0.01727923,-0.03240492,0.5983001,0.03800381
0.5893351,-0.4491338,-0.02354344,-0.3098835,-0.5057455,0.07578575,-0.01320654,0.01802271,-0.03224585,0.5979546,0.03923041
0.582832,-0.4590737,-0.02197871,-0.320498,-0.4978122,0.07573293,-0.01526487,0.02140282,-0.03539046,0.5968848,0.04408607
0.5761123,-0.4688528,-0.02040938,-0.3309679,-0.4898711,0.07562243,-0.01730152,0.02474985,-0.03850381,0.5960137,0.04893303
0.5691792,-0.4784709,-0.01883681,-0.3412804,-0.4819217,0.07544658,-0.01931662,0.02806387,-0.04158607,0.595326,0.05375978
0.5620363,-0.4879277,-0.01726254,-0.3514229,-0.4739634,0.07519777,-0.02131055,0.0313452,-0.04463715,0.594806,0.05855883
0.5546874,-0.4972233,-0.0156882,-0.3613831,-0.4659958,0.07486843,-0.02328363,0.03459417,-0.04765876,0.5944368,0.06332647
0.5471514,-0.5063264,-0.01413989,-0.371242,-0.4561528,0.07444841,-0.0174304,0.03560129,-0.04459093,0.5928225,0.05966257
0.5394319,-0.515237,-0.01261871,-0.3809171,-0.4463008,0.07396377,-0.01163261,0.03659407,-0.04155804,0.5913991,0.05658193
0.5315321,-0.5239548,-0.0111253,-0.3904211,-0.4364405,0.0734385,-0.005889679,0.03757307,-0.03855957,0.5901713,0.05415963
0.5234553,-0.5324798,-0.009659857,-0.3997662,-0.4265727,0.07289635,-0.0002016121,0.03853828,-0.03559582,0.5891444,0.05246239
0.515204,-0.5408116,-0.008222084,-0.4089648,-0.4166979,0.0723609,0.005432687,0.03948965,-0.03266609,0.5883242,0.05153659
0.5067784,-0.5489173,-0.006788474,-0.4180928,-0.4054339,0.07185291,0.003541229,0.04028251,-0.03015211,0.5868058,0.05044176
0.4981809,-0.5567967,-0.005358711,-0.4270958,-0.3941641,0.07136733,0.00167077,0.04106836,-0.02766114,0.5855506,0.04954332
0.4894137,-0.5644497,-0.003932532,-0.4359843,-0.3828892,0.07089642,-0.0001782045,0.04184707,-0.02519409,0.5845619,0.04884619
0.4804788,-0.5718763,-0.002509873,-0.4447683,-0.3716094,0.07043257,-0.002006534,0.04261922,-0.02275038,0.5838434,0.04835291
0.4713781,-0.5790763,-0.001090806,-0.4534581,-0.3603256,0.06996823,-0.003814083,0.04338431,-0.02032971,0.5833989,0.0480629
0.4620762,-0.5860287,0.0003119856,-0.4621111,-0.3479527,0.06949416,-0.001462952,0.04527158,-0.02996282,0.582621,0.05430862
0.452576,-0.5927334,0.001698688,-0.4706394,-0.3355743,0.06902219,0.0008571887,0.04713834,-0.03950135,0.5821303,0.06150703
0.4428811,-0.5991901,0.00306965,-0.479003,-0.3231889,0.0685622,0.003146546,0.04898481,-0.04894674,0.5818898,0.06931952
0.4329958,-0.6053985,0.004425449,-0.4871624,-0.310795,0.06812392,0.005405872,0.05081124,-0.05829981,0.5818605,0.07752337
0.4229251,-0.6113584,0.005766811,-0.4950787,-0.298391,0.06771687,0.007635191,0.05261781,-0.06756171,0.5820014,0.08597392
0.412697,-0.6170474,0.007088402,-0.5027616,-0.284723,0.06734896,0.0118173,0.05337102,-0.06899452,0.5816978,0.08802476
0.4023171,-0.6224653,0.008391529,-0.5101548,-0.271044,0.06703927,0.01595691,0.0541111,-0.07041708,0.5815643,0.09022859
0.3917915,-0.6276115,0.009677807,-0.5172523,-0.2573539,0.06680499,0.02005461,0.05483872,-0.07182961,0.5815874,0.09256871
0.3811261,-0.6324861,0.01094924,-0.5240479,-0.2436532,0.06666314,0.02411046,0.05555386,-0.07323255,0.5817534,0.09502922
0.3703271,-0.6370885,0.01220813,-0.5305356,-0.229942,0.06663053,0.02812548,0.05625652,-0.07462544,0.582049,0.09759505
0.3594139,-0.64139,0.01348637,-0.5367461,-0.2150637,0.06672502,0.02242569,0.05567016,-0.07117723,0.5820661,0.09310358
0.3483925,-0.6453902,0.0147858,-0.5426554,-0.2001762,0.06692157,0.016786,0.05509601,-0.06775757,0.5822576,0.08892935
0.3372686,-0.6490891,0.01610777,-0.548278,-0.1852803,0.06719594,0.01120593,0.05453399,-0.06436586,0.5826258,0.08510283
0.3260476,-0.6524867,0.01745319,-0.553628,-0.1703769,0.06752419,0.005684616,0.05398412,-0.0610026,0.5831738,0.08165732
0.3147345,-0.655583,0.01882248,-0.5587196,-0.1554665,0.06788261,0.0002218908,0.05344605,-0.05766642,0.5839053,0.07862535
0.3033163,-0.6583657,0.02020853,-0.5635824,-0.1399368,0.06824923,-0.002488174,0.05792077,-0.0613029,0.5846925,0.08437447
0.2917981,-0.6608347,0.02161123,-0.5681847,-0.1244007,0.06861132,-0.005169659,0.06235391,-0.06489973,0.5856764,0.09014827
0.280164,-0.6629829,0.02303091,-0.5736001,-0.1085003,0.0689939,-0.007823105,0.06674589,-0.06845797,0.5878347,0.09593075
0.2684197,-0.6648101,0.02446698,-0.5787247,-0.09259357,0.06934952,-0.01044851,0.0710969,-0.07197783,0.5901738,0.1017091
0.2565716,-0.666316,0.0259186,-0.5835434,-0.07668044,0.06966703,-0.01304691,0.07540747,-0.07545943,0.5926688,0.1074739
0.2446434,-0.6674927,0.02737551,-0.5880522,-0.06018679,0.0699363,-0.01302784,0.07421649,-0.07193128,0.5952469,0.1041726
0.232641,-0.6683401,0.02883669,-0.5922546,-0.04368767,0.07015572,-0.01300566,0.07303828,-0.06843846,0.5979933,0.1009334
0.2205703,-0.668858,0.03030107,-0.5961655,-0.02718379,0.07032488,-0.01298043,0.07187295,-0.06498051,0.6009142,0.09775827
0.2084365,-0.6690465,0.03176765,-0.5997999,-0.01067571,0.07044338,-0.01295153,0.07071999,-0.06155676,0.6040167,0.09464826
0.196245,-0.6689056,0.03323536,-0.6031722,0.005835935,0.0705109,-0.01291974,0.06957944,-0.05816711,0.6073077,0.09160584
0.1840046,-0.6684274,0.03469823,-0.6063024,0.02280538,0.07052738,-0.01101534,0.07131635,-0.05410242,0.6108165,0.09019108
0.1717197,-0.6676121,0.03615541,-0.609202,0.03977744,0.07050034,-0.009122573,0.07303487,-0.05008151,0.6145564,0.08902512
0.1593945,-0.6664596,0.03760619,-0.611888,0.05675168,0.07043761,-0.007241,0.07473492,-0.04610404,0.6185379,0.08810972
0.1470327,-0.6649699,0.03905005,-0.6143776,0.07372774,0.07034697,-0.005370977,0.07641676,-0.04216911,0.6227714,0.08744486
0.1346378,-0.6631429,0.04048659,-0.6166874,0.09070529,0.07023618,-0.003512445,0.07808077,-0.03827635,0.6272671,0.08702886
0.1221878,-0.6609743,0.04193443,-0.6188334,0.1075681,0.07011294,-0.008193934,0.0760273,-0.04183603,0.6320138,0.08716389
0.1096864,-0.6584643,0.04339286,-0.6208012,0.1244321,0.069957,-0.01283536,0.07399761,-0.04535258,0.6370019,0.08773397
0.09713759,-0.6556125,0.04486066,-0.6225761,0.1412972,0.06974826,-0.01743739,0.07199166,-0.0488268,0.6422076,0.0887182
0.08454577,-0.652419,0.0463363,-0.6241431,0.1581633,0.06946677,-0.02200015,0.07000879,-0.05225889,0.6476078,0.09009012
0.0719155,-0.6488839,0.0478178,-0.625488,0.1750301,0.06909275,-0.02652422,0.06804922,-0.0556497,0.6531804,0.09182113
0.0592637,-0.6450187,0.04926604,-0.626596,0.1918072,0.06860676,-0.01845404,0.07096144,-0.05617801,0.6588774,0.09236908
0.04659508,-0.6408233,0.05067968,-0.6274655,0.2085846,0.06804274,-0.01046194,0.07383532,-0.05671351,0.6647183,0.09368847
0.03391434,-0.6362978,0.05205812,-0.6280943,0.225362,0.06743438,-0.002547345,0.07667132,-0.05725581,0.6706995,0.09572465
0.02122629,-0.6314421,0.05340134,-0.6284801,0.2421393,0.066815,0.005290387,0.0794699,-0.05780526,0.6768183,0.0984119
0.008535726,-0.6262562,0.05471003,-0.6286207,0.2589162,0.06621759,0.0130522,0.0822318,-0.0583608,0.6830713,0.101678
-0.004142401,-0.6207356,0.05600788,-0.6285136,0.2756878,0.06567477,0.01268634,0.0778689,-0.053934,0.6894536,0.09556875
-0.01680362,-0.6148806,0.0572959,-0.6281775,0.2924586,0.06518466,0.01232629,0.07354891,-0.0495517,0.69598,0.0895363
-0.02944383,-0.6086913,0.0585751,-0.6276311,0.3092284,0.06474547,0.01197213,0.06927142,-0.04521395,0.7026628,0.08358327
-0.04205927,-0.6021673,0.05984637,-0.6268926,0.3259972,0.06435551,0.01162326,0.06503601,-0.04091996,0.709514,0.07771245
-0.0546466,-0.5953091,0.06111069,-0.6259802,0.3427649,0.06401315,0.01128061,0.06084207,-0.03666963,0.7165449,0.07192824
-0.06723145,-0.588127,0.06237709,-0.624918,0.3587691,0.0637176,0.00891878,0.06325126,-0.04341691,0.7233932,0.07723533
-0.07980995,-0.580621,0.06364627,-0.6236719,0.3747717,0.06345765,0.006574098,0.06563958,-0.05009366,0.7303748,0.08283205
-0.09237761,-0.5727912,0.0649187,-0.6222136,0.3907725,0.06322299,0.004246415,0.0680074,-0.05670035,0.7374619,0.08864518
-0.1049294,-0.5646376,0.06619464,-0.6205149,0.4067707,0.06300337,0.00193572,0.0703545,-0.06323735,0.7446278,0.09461746
-0.1174598,-0.5561603,0.0674742,-0.6185481,0.4227659,0.06278851,-0.0003576571,0.0726813,-0.06970583,0.7518478,0.1007055
-0.1299385,-0.547377,0.06874873,-0.6162948,0.4380971,0.06256857,-0.0005536435,0.06805894,-0.06644691,0.7587247,0.09511844
-0.14236,-0.5382879,0.07001805,-0.6137607,0.4534244,0.06234219,-0.0007496843,0.06348314,-0.06322046,0.7656255,0.0895963
-0.1547189,-0.5288929,0.07128203,-0.6109595,0.4687476,0.06210847,-0.0009454231,0.05895344,-0.06002612,0.7725627,0.08413999
-0.1670103,-0.5191924,0.07254048,-0.6079046,0.4840664,0.06186658,-0.001140774,0.05446919,-0.05686311,0.7795485,0.07875028
-0.1792295,-0.5091862,0.07379318,-0.6046095,0.499381,0.06161574,-0.001335632,0.05003024,-0.05373152,0.7865943,0.07342945
-0.1913813,-0.498898,0.07504338,-0.6011119,0.5134342,0.06135623,-0.002291693,0.04897252,-0.05435266,0.7929154,0.0731968
-0.2034612,-0.4883277,0.07629077,-0.5973861,0.5274827,0.06108295,-0.00324007,0.04792636,-0.0549667,0.7992743,0.07299843
-0.2154645,-0.4774756,0.07753497,-0.5934295,0.5415264,0.06079178,-0.004180476,0.0468916,-0.05557344,0.8056706,0.07283341
-0.2273865,-0.4663417,0.07877551,-0.5892395,0.5555649,0.06047864,-0.00511348,0.04586821,-0.05617319,0.8121042,0.07270122
-0.2392224,-0.4549261,0.08001186,-0.5848136,0.5695977,0.0601395,-0.006038674,0.04485585,-0.0567659,0.8185751,0.07260083
-0.2509593,-0.4432561,0.08123995,-0.5801813,0.5823554,0.05977202,-0.005713006,0.04480364,-0.05465679,0.8242092,0.07090394
-0.2625926,-0.4313319,0.08245927,-0.575321,0.5951072,0.05937588,-0.005388457,0.0447518,-0.05256915,0.8298628,0.06924792
-0.2741181,-0.4191536,0.0836692,-0.5702413,0.6078531,0.05895223,-0.005065597,0.04470048,-0.05050269,0.8355453,0.06763368
-0.2855315,-0.4067214,0.08486925,-0.5649511,0.6205931,0.05850224,-0.004744016,0.04464945,-0.04845731,0.8412657,0.06606202
-0.296829,-0.3940352,0.08605891,-0.5594588,0.6333273,0.05802707,-0.004423935,0.04459893,-0.04643238,0.8470329,0.06453373
-0.3080099,-0.3811167,0.08724879,-0.5538095,0.6448455,0.05753025,-0.008203272,0.04068656,-0.04434371,0.8519626,0.06073759
-0.3190707,-0.3679657,0.08843797,-0.5479763,0.656358,0.0569942,-0.01194622,0.03681693,-0.04227203,0.8569319,0.05731599
-0.3300078,-0.3545826,0.08962526,-0.541968,0.6678649,0.05640373,-0.01565355,0.0329896,-0.04021739,0.8619479,0.05432114
-0.340818,-0.3409674,0.09080916,-0.5357931,0.6793662,0.05574384,-0.01932514,0.02920431,-0.03817935,0.8670179,0.05180748
-0.351498,-0.3271203,0.09198788,-0.52946,0.690862,0.05499971,-0.02296197,0.02546038,-0.03615853,0.8721486,0.04982894
-0.3620414,-0.3130821,0.09313811,-0.523037,0.7006017,0.05416301,-0.01920386,0.02434325,-0.03321325,0.8759817,0.0454368
-0.3724456,-0.2988529,0.09425832,-0.5164776,0.7103364,0.05324379,-0.01548254,0.02323594,-0.03029871,0.8798647,0.0412023
-0.3827081,-0.2844329,0.09534729,-0.509794,0.7200664,0.05225748,-0.01179773,0.02213829,-0.02741497,0.8838079,0.03716007
-0.3928269,-0.269822,0.09640408,-0.5029979,0.7297922,0.05121935,-0.008149362,0.02105038,-0.02456179,0.8878215,0.03335883
-0.4028,-0.2550204,0.09742807,-0.4961011,0.7395142,0.05014453,-0.00453665,0.01997191,-0.02173834,0.8919148,0.02986661
-0.4126323,-0.2400554,0.0984348,-0.4891741,0.7476379,0.0490558,-0.006628481,0.01503058,-0.01983263,0.8947961,0.02575245
-0.4223225,-0.2249272,0.09942363,-0.4821664,0.7557584,0.04793773,-0.008700722,0.01013973,-0.01794461,0.897749,0.02237243
-0.4318689,-0.2096357,0.1003938,-0.4750856,0.763876,0.04678256,-0.01075361,0.005298833,-0.01607428,0.9007783,0.02005244
-0.4412703,-0.1941811,0.1013443,-0.4679393,0.7719909,0.04558266,-0.01278717,0.0005072937,-0.01422144,0.9038888,0.01913161
-0.4505256,-0.1785635,0.102274,-0.460735,0.7801033,0.04433046,-0.01480149,-0.004235159,-0.01238563,0.9070849,0.01975917
-0.4596535,-0.1628311,0.1031661,-0.4535697,0.7858855,0.04303237,-0.0109685,-0.004791693,-0.01754299,0.9084014,0.02123734
-0.4686526,-0.1469839,0.1040195,-0.4463334,0.7916645,0.04169076,-0.007173336,-0.005345192,-0.02264814,0.9097716,0.0243509
-0.4775208,-0.1310222,0.1048341,-0.4390056,0.7974399,0.04032102,-0.003415728,-0.005895573,-0.02770173,0.9111872,0.02852737
-0.4862558,-0.1149458,0.1056095,-0.4315657,0.8032107,0.03893844,0.0003044371,-0.006442942,-0.03270452,0.9126405,0.03333451
-0.4948546,-0.09875476,0.1063459,-0.4239937,0.8089762,0.03755813,0.00398765,-0.006987028,-0.03765612,0.9141245,0.03850589
-0.5033023,-0.08248445,0.1070537,-0.4163434,0.8129472,0.03620635,0.004236057,-0.009145322,-0.03775448,0.9140764,0.03907662
-0.5115958,-0.06613491,0.1077333,-0.4085417,0.8169119,0.03487303,0.004480013,-0.01128237,-0.03785179,0.9140391,0.03975073
-0.5197322,-0.04970626,0.108385,-0.4005883,0.8208704,0.03355956,0.004719698,-0.01339809,-0.0379484,0.9140161,0.04051993
-0.5277082,-0.03319848,0.1090093,-0.3924828,0.8248224,0.03226729,0.004955492,-0.01549277,-0.03804493,0.9140109,0.04137632
-0.5355209,-0.01661198,0.1096067,-0.3842247,0.8287679,0.03099758,0.005187722,-0.0175668,-0.03814023,0.9140272,0.04231054
-0.5431648,1.361966E-05,0.1101795,-0.375903,0.8307269,0.02976318,0.004667359,-0.02109502,-0.03655357,0.9123026,0.04246113
-0.5506374,0.01667812,0.1107281,-0.3674359,0.8326794,0.02855107,0.004148999,-0.02458754,-0.03498296,0.9105929,0.04296008
-0.5579356,0.0333814,0.1112531,-0.3588298,0.8346256,0.02735989,0.003632771,-0.02804488,-0.03342933,0.9089044,0.04378621
-0.5650569,0.05012324,0.1117547,-0.3500907,0.8365656,0.02618831,0.003118712,-0.03146737,-0.03189078,0.9072438,0.04491039
-0.5719988,0.06690368,0.1122334,-0.3412245,0.8384997,0.02503501,0.002606234,-0.03485564,-0.03036854,0.9056172,0.04630288
-0.5787607,0.08367763,0.1126854,-0.3323436,0.8382376,0.02391024,0.0032524,-0.03996288,-0.02835988,0.9020345,0.04911102
-0.5853405,0.100445,0.1131113,-0.3233508,0.8379704,0.02280584,0.003887764,-0.04501954,-0.02637147,0.8984821,0.05231948
-0.591736,0.1172058,0.1135115,-0.3142537,0.8376981,0.02172536,0.004512526,-0.050026,-0.02440312,0.8949668,0.05584332
-0.5979453,0.1339598,0.1138866,-0.3050602,0.8374211,0.02067232,0.005126472,-0.05498308,-0.02245441,0.8914949,0.05961225
-0.6039668,0.150707,0.1142373,-0.2957777,0.8371397,0.01965019,0.005730276,-0.05989094,-0.02052472,0.8880729,0.06356905
-0.6097952,0.1674044,0.1145859,-0.2865339,0.8344955,0.0186732,-0.000147007,-0.06034417,-0.01773133,0.8825153,0.06289548
-0.6154294,0.184052,0.1149324,-0.2772205,0.8318478,0.01770758,-0.005969282,-0.06079073,-0.01497199,0.8770037,0.06289122
-0.6208681,0.2006498,0.1152765,-0.267848,0.829197,0.01673097,-0.0117369,-0.06123051,-0.0122474,0.8715447,0.06353684
-0.6261107,0.2171975,0.1156174,-0.2584271,0.8265436,0.01572122,-0.01745008,-0.06166409,-0.009557353,0.8661443,0.06479435
-0.6311564,0.2336952,0.1159538,-0.248968,0.8238878,0.01465635,-0.02310927,-0.06209129,-0.006901046,0.8608084,0.06661075
-0.6360044,0.2500923,0.1162638,-0.2395985,0.8189796,0.01352683,-0.02162743,-0.0602532,-0.003877799,0.8534155,0.06413447
-0.6406543,0.2663889,0.1165462,-0.2302129,0.8140702,0.01232664,-0.02016377,-0.05843239,-0.0008842127,0.8460853,0.06181993
-0.6451061,0.282585,0.1167995,-0.2208226,0.8091601,0.01106105,-0.01871838,-0.05662861,0.002080628,0.8388236,0.05967836
-0.6493601,0.2986805,0.1170228,-0.2114389,0.80425,0.009735221,-0.0172908,-0.05484178,0.005016244,0.8316365,0.05772136
-0.6534168,0.3146757,0.1172149,-0.202073,0.7993404,0.00835423,-0.01588085,-0.0530715,0.007924087,0.8245292,0.05596049
-0.657283,0.3305256,0.1173744,-0.1928529,0.7921853,0.006938834,-0.01522363,-0.05870181,0.011304,0.8153514,0.06168826
-0.6609597,0.3462308,0.1175002,-0.1836739,0.785032,0.005477433,-0.01457587,-0.0642745,0.01465303,0.8062515,0.06751576
-0.664448,0.361791,0.1175916,-0.1745486,0.7778813,0.003973509,-0.0139366,-0.06979044,0.01797115,0.7972341,0.07340229
-0.6677492,0.3772063,0.1176479,-0.1654891,0.7707335,0.00243047,-0.01330669,-0.07525009,0.02125801,0.7883037,0.07931927
-0.670865,0.3924769,0.1176685,-0.1565078,0.7635895,0.0008516458,-0.01268546,-0.0806539,0.02451433,0.7794641,0.08524626
-0.6738188,0.4075587,0.1176522,-0.147734,0.7541172,-0.0007409521,-0.01100083,-0.08064142,0.02000445,0.7684521,0.08381071
-0.6766121,0.4224519,0.1175984,-0.1390325,0.7446483,-0.002359526,-0.009325725,-0.08062952,0.01554271,0.7575201,0.08264179
-0.6792458,0.4371564,0.1175068,-0.1303865,0.735182,-0.003997928,-0.00766024,-0.08061811,0.01112852,0.7466654,0.0817423
-0.6817204,0.4516723,0.1173771,-0.1217795,0.7257175,-0.005650023,-0.006004044,-0.0806072,0.006760996,0.735886,0.08111276
-0.6840364,0.4659995,0.1172093,-0.1131953,0.7162541,-0.007309678,-0.004357366,-0.08059651,0.002439578,0.7251804,0.08075107
-0.6861997,0.4800944,0.1169906,-0.1047189,0.7047349,-0.008953486,0.0009046189,-0.08512964,-0.002058897,0.7125289,0.08515934
-0.6882099,0.4939571,0.1167215,-0.09623224,0.6932154,-0.01057847,0.006121377,-0.08961755,-0.006503582,0.6999429,0.09006149
-0.6900662,0.5075874,0.1164031,-0.08771888,0.6816949,-0.01216451,0.01129322,-0.09406074,-0.01089577,0.6874231,0.09536078
-0.6917676,0.5209855,0.1160365,-0.07916255,0.6701727,-0.01369166,0.01642063,-0.09845961,-0.01523506,0.6749708,0.1009754
-0.6933125,0.5341514,0.1156234,-0.07054724,0.6586481,-0.01514008,0.02150381,-0.1028146,-0.01952232,0.6625885,0.106838
-0.6946759,0.5470569,0.1151831,-0.06192932,0.6456894,-0.0164803,0.02097024,-0.1067711,-0.01559353,0.6488618,0.1099226
-0.6958567,0.5597019,0.1147175,-0.05325172,0.6327283,-0.01772394,0.02043217,-0.1106893,-0.01170667,0.6352126,0.1131664
-0.6968539,0.5720863,0.1142287,-0.04452881,0.6197655,-0.01887212,0.01988991,-0.1145699,-0.007861787,0.6216496,0.116549
-0.6976671,0.5842102,0.1137184,-0.03577479,0.6068016,-0.01992602,0.01934398,-0.118413,-0.004058311,0.6081818,0.1200513
-0.698296,0.5960736,0.1131886,-0.02700374,0.5938374,-0.02088686,0.01879428,-0.1222192,-0.0002951714,0.5948179,0.1236562
-0.6987414,0.6076381,0.1126535,-0.01833452,0.5788268,-0.02174724,0.01467318,-0.1229894,0.003173552,0.5795253,0.1239023
-0.6990035,0.6189039,0.1121145,-0.009674993,0.563817,-0.02253165,0.01058472,-0.1237531,0.006597494,0.56435,0.12438
-0.699083,0.6298708,0.1115728,-0.001037727,0.5488086,-0.0232548,0.006529226,-0.1245104,0.009977402,0.549302,0.1250801
-0.6989807,0.6405391,0.1110291,0.007564918,0.5338021,-0.02393131,0.002506006,-0.1252614,0.01331331,0.5343918,0.1259918
-0.6986979,0.6509084,0.1104843,0.01612077,0.5187981,-0.0245757,-0.001485154,-0.1260063,0.01660605,0.51963,0.1271045
-0.6982525,0.6609501,0.1099437,0.02453577,0.5021659,-0.02519762,-0.006831432,-0.1243453,0.01423835,0.503396,0.1253441
-0.6976457,0.6706638,0.1094073,0.03290099,0.4855362,-0.02582167,-0.01211905,-0.1227027,0.01188079,0.4873342,0.1238708
-0.6968784,0.68005,0.1088743,0.0412249,0.4689085,-0.02646722,-0.01734829,-0.1210783,0.009533287,0.4714607,0.1226858
-0.6959511,0.6891083,0.1083439,0.04951599,0.4522824,-0.02715344,-0.02251977,-0.1194721,0.007195783,0.4557943,0.1217888
-0.6948645,0.6978388,0.1078145,0.05778274,0.4356572,-0.02789924,-0.02763449,-0.1178839,0.00486929,0.4403571,0.1211775
-0.6936136,0.7062031,0.1072508,0.06596112,0.4175646,-0.02871732,-0.02229159,-0.1215958,0.005941303,0.4237166,0.1237649
-0.6921991,0.7142015,0.1066517,0.0741202,0.3994728,-0.0295934,-0.01700414,-0.1252696,0.007017951,0.4073672,0.1266131
-0.690621,0.7218336,0.1060166,0.0822563,0.3813819,-0.03050806,-0.01177171,-0.1289054,0.008098075,0.3913425,0.1296948
-0.68888,0.7290999,0.1053454,0.09036572,0.3632922,-0.0314421,-0.006594092,-0.1325037,0.00918168,0.3756804,0.132985
-0.6869766,0.7360001,0.1046381,0.09844469,0.3452041,-0.03237654,-0.001470378,-0.1360651,0.01026798,0.360424,0.1364599
-0.6849005,0.7425139,0.1039129,0.1064338,0.3259761,-0.03328731,-0.001541109,-0.1356605,0.01434274,0.3445238,0.1364253
-0.6826531,0.7486413,0.1031702,0.1143745,0.3067507,-0.03418026,-0.001622101,-0.1352599,0.01837747,0.3291592,0.1365123
-0.6802356,0.7543825,0.1024103,0.1222522,0.2875283,-0.03505589,-0.00171364,-0.1348633,0.02237078,0.3143995,0.1367169
-0.6776497,0.7597375,0.1016337,0.1300529,0.2683097,-0.03591478,-0.001814969,-0.1344707,0.02632459,0.3003227,0.1370352
-0.6748975,0.7647064,0.1008407,0.1377625,0.2490954,-0.03675758,-0.00192588,-0.1340817,0.03023846,0.2870159,0.1374627
-0.6720043,0.7692756,0.1000328,0.1453264,0.2290084,-0.03758135,-0.002904125,-0.1367572,0.02736434,0.2738192,0.1394983
-0.668972,0.7734452,0.09921037,0.1527959,0.2089257,-0.03839311,-0.003863537,-0.1394065,0.02451682,0.2616689,0.1415986
-0.6658022,0.7772152,0.09837337,0.1601811,0.188847,-0.03919605,-0.004804024,-0.14203,0.02169586,0.250714,0.1437578
-0.6624963,0.7805856,0.09752184,0.167492,0.1687717,-0.03999328,-0.005726229,-0.1446279,0.01890013,0.241116,0.14597
-0.6590555,0.7835565,0.0966558,0.1747383,0.1486993,-0.04078784,-0.006630004,-0.1472006,0.0161302,0.233042,0.1482301
-0.6554677,0.7861129,0.09576486,0.1819068,0.1281085,-0.0415806,-0.003494828,-0.1459851,0.01699507,0.2263423,0.1470126
-0.651734,0.788255,0.09484935,0.1890177,0.1075204,-0.04236298,-0.0003941009,-0.1447807,0.01786036,0.2215468,0.1458787
-0.6478557,0.7899829,0.09390979,0.1960679,0.08693506,-0.04312446,0.00267289,-0.1435873,0.01872608,0.2187694,0.1448279
-0.643834,0.7912966,0.09294692,0.2030543,0.06635256,-0.04385464,0.005706107,-0.1424047,0.01959156,0.2180755,0.1438593
-0.6396702,0.7921962,0.09196167,0.2099736,0.04577312,-0.04454324,0.008706094,-0.1412329,0.02045757,0.2194725,0.1429722
-0.6353758,0.7926782,0.09096295,0.216808,0.02485092,-0.04517902,0.008757045,-0.1422398,0.0185799,0.2228552,0.1437152
-0.6309519,0.7927427,0.08995178,0.2235788,0.003931567,-0.04576302,0.008813324,-0.1432364,0.01672058,0.2282481,0.1444781
-0.6263999,0.7923898,0.08892915,0.2302924,-0.01698524,-0.04629507,0.008874813,-0.1442227,0.01488067,0.2355128,0.1452597
-0.6217204,0.7916192,0.08789609,0.236955,-0.03789979,-0.04677495,0.008941279,-0.1451987,0.01305845,0.244483,0.1460586
-0.6169144,0.7904314,0.0868536,0.2435729,-0.05881239,-0.04720245,0.0090124,-0.1461646,0.01125456,0.2549798,0.146874
-0.6119625,0.7888225,0.08580279,0.2501514,-0.07974434,-0.04757724,0.009188503,-0.1464222,0.01594763,0.2668304,0.1475744
-0.6068659,0.7867926,0.0847448,0.2566748,-0.100674,-0.04789886,0.009349462,-0.146678,0.02059421,0.2798419,0.1484115
-0.6016263,0.7843419,0.08368079,0.2631266,-0.1216006,-0.04816689,0.009495571,-0.1469319,0.02519481,0.2938407,0.1493785
-0.5962456,0.7814704,0.08261194,0.2694907,-0.1425237,-0.04838102,0.009626895,-0.1471843,0.02975008,0.3086729,0.1504691
-0.5907258,0.7781782,0.08153941,0.2757507,-0.1634426,-0.04854103,0.009743662,-0.1474349,0.03425979,0.3242039,0.1516764
-0.5850897,0.7744751,0.0804794,0.2818966,-0.1842081,-0.04864682,0.005379854,-0.1444238,0.03132129,0.3402424,0.147879
-0.5793396,0.7703611,0.07943255,0.2879327,-0.2049694,-0.04871437,0.001066324,-0.1414452,0.02839986,0.3567783,0.1442721
-0.5734773,0.7658362,0.07839909,0.293869,-0.225727,-0.04875951,-0.003197432,-0.1384987,0.02549551,0.3737502,0.1408621
-0.5675046,0.7609004,0.07737899,0.2997158,-0.2464812,-0.04879784,-0.007412191,-0.135584,0.02260838,0.3911059,0.1376557
-0.5614234,0.7555538,0.07637189,0.3054833,-0.2672325,-0.04884475,-0.01157833,-0.1327008,0.0197389,0.408802,0.1346595
-0.5552311,0.7497982,0.07536139,0.3111921,-0.2876827,-0.04891538,-0.01073277,-0.1314285,0.01837858,0.4266082,0.1331405
-0.5489291,0.7436338,0.07434703,0.3168364,-0.3081306,-0.04900717,-0.009892598,-0.1301691,0.01703341,0.44467,0.131651
-0.5425185,0.7370605,0.07332847,0.3224208,-0.3285763,-0.0491175,-0.009057989,-0.1289221,0.01570345,0.462958,0.1301905
-0.5360004,0.7300784,0.07230538,0.3279501,-0.3490201,-0.04924374,-0.008228617,-0.1276876,0.01438924,0.4814471,0.128759
-0.5293757,0.7226876,0.07127751,0.3334291,-0.3694622,-0.04938325,-0.007404786,-0.1264654,0.01308976,0.5001159,0.1273565
-0.5226365,0.7149057,0.07023987,0.3388967,-0.3888984,-0.04953376,-0.005410286,-0.1277228,0.01504669,0.5182147,0.1287199
-0.5157838,0.7067329,0.06919248,0.3443113,-0.4083327,-0.04968791,-0.003440618,-0.1289671,0.01698907,0.5364278,0.1301268
-0.5088189,0.6981691,0.06813549,0.3496661,-0.427765,-0.04983875,-0.001495105,-0.1301981,0.01891721,0.554737,0.1315737
-0.501743,0.6892146,0.06706922,0.3549542,-0.4471951,-0.0499794,0.0004268149,-0.1314159,0.02083129,0.5731263,0.1330574
-0.4945576,0.6798692,0.06599406,0.3601687,-0.4666227,-0.05010313,0.002325045,-0.1326208,0.02273142,0.5915814,0.1345748
-0.487263,0.670154,0.06491385,0.3653358,-0.4850414,-0.05020334,0.003454118,-0.1317905,0.0244613,0.6093076,0.1340859
-0.4798608,0.6600688,0.06382923,0.3704159,-0.5034574,-0.05027615,0.004567432,-0.1309681,0.02617661,0.6270606,0.1336365
-0.4723529,0.6496139,0.06274082,0.3754029,-0.5218705,-0.05031792,0.005664279,-0.1301534,0.0278776,0.6448318,0.1332259
-0.4647415,0.6387891,0.06164941,0.3802906,-0.5402805,-0.05032512,0.006745439,-0.1293465,0.02956467,0.6626135,0.1328536
-0.4570286,0.6275947,0.06055582,0.385073,-0.5586872,-0.05029425,0.007811031,-0.1285471,0.03123784,0.6803985,0.1325186
-0.4492214,0.6160668,0.05947124,0.3897929,-0.5754479,-0.05022037,0.005741084,-0.1260463,0.03060085,0.6968507,0.1298347
-0.4413221,0.6042054,0.05839628,0.3944027,-0.5922053,-0.05011259,0.003691872,-0.1235717,0.02996549,0.7132824,0.1272066
-0.433333,0.5920106,0.05733138,0.3989044,-0.6089596,-0.04997879,0.001663297,-0.121123,0.02933163,0.7296947,0.1246351
-0.4252561,0.5794823,0.05627683,0.4033003,-0.625711,-0.04982676,-0.0003450317,-0.1187,0.02869928,0.7460884,0.1221207
-0.4170936,0.5666206,0.05523277,0.4075927,-0.6424595,-0.04966419,-0.002333175,-0.1163025,0.02806861,0.7624648,0.1196643
-0.4088434,0.5534509,0.05419615,0.4118192,-0.6578812,-0.04949679,-0.003458707,-0.1149822,0.02881818,0.7777228,0.118589
-0.4005076,0.5399731,0.05316692,0.4159411,-0.6733001,-0.04933088,-0.004575592,-0.1136757,0.02955699,0.7929525,0.1175445
-0.3920883,0.5261874,0.05214494,0.4199556,-0.6887163,-0.04917086,-0.00568346,-0.1123828,0.0302862,0.8081526,0.1165309
-0.3835879,0.5120937,0.05112997,0.4238601,-0.7041296,-0.04902109,-0.006783253,-0.1111036,0.03100554,0.8233219,0.1155481
